aX,aY,aZ,Gx,Gy,Gz
-0.01,0.0,0.0,0.0,0.0,0.0
-0.01,0.0,0.0,0.0,0.0,0.0
-0.01,0.0,0.0,0.0,0.0,0.0
-0.01,0.0,0.0,0.0,0.0,0.0
-0.01,0.0,0.0,0.0,0.0,0.0
-0.01,0.0,0.0,0.0,0.0,0.0
-0.01,0.0,0.0,0.0,0.0,0.0
-0.01,0.0,0.0,0.0,0.0,0.0
-0.01,0.0,0.0,0.0,0.0,0.0
-0.01,0.0,0.0,0.0,0.0,0.0
-0.005,0.0,0.0,0.0,0.0,0.0
-0.005,0.0,0.0,0.0,0.0,0.0
-0.005,0.0,0.0,0.0,0.0,0.0
-0.005,0.0,0.0,0.0,0.0,0.0
-0.005,0.0,0.0,0.0,0.0,0.0
-0.005,0.0,0.0,0.0,0.0,0.0
0.239,0.0,0.062,0.0,0.0,-0.671
-0.014,0.048,-0.038,-0.183,0.122,0.366
-0.067,-0.062,0.014,0.305,0.122,-0.488
1.637,1.258,-0.081,-2.747,4.456,5.554
-0.144,-0.828,-0.057,4.578,2.258,-1.953
-0.584,-1.268,0.12,1.892,-4.089,-3.784
-0.871,-1.235,0.287,1.465,-3.662,-6.226
3.517,27.06,3.24,-7.019,4.395,-6.287
4.967,-3.756,-4.091,-5.615,32.898,-40.222
10.422,-2.048,-1.656,-8.484,57.007,-82.642
3.804,0.435,-0.565,-12.512,77.209,-70.19
6.915,2.306,-0.603,-17.822,96.802,-75.073
-3.345,2.876,-0.105,-21.484,102.966,-71.96
-1.086,3.063,4.043,-5.981,100.647,-36.438
-2.11,6.225,2.617,-27.893,74.341,138.672
-6.584,2.646,4.302,-19.714,18.25,16.357
-3.881,1.924,3.484,-31.311,-25.33,-150.391
-1.493,1.077,2.895,-31.311,-55.847,-177.002
-1.507,-0.656,2.627,-23.438,-66.467,-187.561
-3.359,-2.45,3.359,-16.541,-80.627,-210.877
1.704,-3.168,4.536,-0.977,-66.528,-250.916
3.335,0.78,3.957,4.333,-45.349,-172.852
-1.78,0.55,3.665,-1.648,-35.339,52.429
-6.001,-0.785,2.445,-21.484,-57.617,54.626
-7.159,-4.297,2.397,-36.011,-114.258,-117.249
-4.776,-4.642,2.23,-26.55,-148.56,-129.7
-3.11,-0.483,1.168,-33.813,-154.48,-26.245
-1.297,-2.732,1.857,-62.561,-144.165,3.113
0.675,-2.196,0.455,-78.674,-121.765,44.8
-5.087,1.775,1.455,-111.145,-104.126,50.598
1.55,1.589,-2.814,-134.155,-82.52,49.744
-3.211,1.11,1.321,-150.757,-65.979,44.373
-0.469,5.556,-3.034,-184.265,-44.922,81.726
-2.57,4.254,-4.273,-210.266,-38.757,16.785
-3.594,-0.368,-3.651,-211.487,-77.454,-204.102
-1.053,1.55,-4.881,-187.073,-119.934,-251.099
1.048,1.263,-4.809,-159.424,-129.334,-150.696
0.718,-0.139,-3.45,-130.066,-123.779,-31.86
0.038,1.574,-3.919,-123.718,-111.939,20.264
0.837,1.115,-4.24,-125.732,-93.567,-13.916
1.584,-0.139,-4.244,-118.652,-84.961,-105.896
1.388,-2.283,-3.996,-92.163,-81.543,-133.667
-0.517,-2.397,-2.641,-53.772,-81.299,-32.898
-0.77,-2.22,-1.967,-33.02,-83.74,-24.841
1.354,-1.431,-0.751,-25.391,-77.759,-68.42
0.852,2.254,-6.092,-42.419,-61.584,-110.779
4.197,5.632,4.943,-67.566,-36.56,-132.08
2.402,8.135,1.924,-106.445,-16.052,-1.587
-2.986,4.852,2.986,-127.136,-7.935,114.746
-6.948,-1.589,3.905,-116.943,-20.447,115.967
-6.082,0.167,4.737,-102.6,-50.11,-28.381
-6.757,1.541,1.512,-94.727,-78.125,-112.305
-4.651,3.082,-1.129,-96.741,-98.145,-121.033
-0.158,3.072,-0.086,-105.225,-100.891,-148.193
2.35,3.871,-1.273,-114.624,-92.407,-154.48
0.593,0.847,-2.79,-112.0,-83.191,-99.915
-0.924,-1.44,-4.838,-100.586,-79.773,-79.773
0.038,-1.924,-6.063,-85.144,-77.942,-129.395
1.909,-1.852,-6.685,-71.411,-70.984,-170.593
3.173,-1.842,-5.967,-52.673,-53.833,-146.423
2.981,-0.632,-4.192,-33.997,-35.767,-63.293
1.388,1.11,-3.46,-22.339,-25.513,0.916
1.096,3.632,-2.761,-17.944,-20.081,12.939
1.239,4.221,-2.306,-19.165,-16.296,-28.564
3.335,5.776,1.469,-18.982,-12.756,-51.758
3.34,6.326,-1.857,-19.836,0.61,-11.353
1.852,4.412,-3.412,-15.076,5.676,-4.639
1.861,1.402,0.718,14.038,4.639,-16.052
2.881,-0.311,1.201,47.424,6.104,-26.184
0.622,0.033,-1.388,79.59,7.446,2.38
-0.263,0.373,-2.637,93.567,4.883,32.471
-0.254,-0.502,-2.78,96.313,3.479,7.385
0.632,-2.321,-1.134,100.159,6.653,-29.419
1.838,-3.46,1.067,101.624,18.555,-40.833
1.345,-2.44,1.842,88.928,34.119,-64.209
2.847,-4.89,5.465,69.153,42.358,-162.354
0.187,-0.589,4.158,32.959,53.467,-179.993
-4.264,0.416,6.996,-12.268,31.616,-141.357
-6.943,-2.206,8.269,-36.316,-8.545,-84.839
-8.202,-5.264,5.603,-35.4,-58.777,44.434
-2.507,-2.885,5.005,-38.391,-87.219,-13.55
0.321,1.345,3.56,-52.307,-99.976,-120.483
0.723,2.799,0.263,-68.115,-110.413,-133.057
0.943,1.637,-2.814,-77.271,-116.028,-100.159
1.814,-0.909,-4.809,-73.669,-116.272,-101.746
2.445,-1.665,-5.072,-55.603,-109.131,-140.93
2.364,-0.139,-5.139,-38.147,-97.9,-153.992
2.158,1.526,-4.421,-23.376,-79.651,-105.164
0.952,2.244,-3.603,-15.381,-65.125,-41.504
-0.876,3.771,-2.775,-15.198,-54.504,-5.676
-1.526,4.895,-0.957,-18.494,-48.889,-38.574
-1.407,6.934,0.297,-21.606,-41.687,-48.401
-1.637,7.206,-0.746,-22.949,-27.832,-19.836
-0.512,4.364,0.44,-9.094,-8.789,-16.785
0.488,3.196,1.445,21.179,22.156,10.559
0.555,2.373,-0.072,49.744,50.842,49.377
0.081,0.086,-1.766,68.298,64.331,47.729
-0.268,-0.665,-2.373,83.191,69.824,39.246
0.756,-1.369,-2.579,89.478,71.838,21.057
1.273,-2.268,-1.445,94.36,74.036,18.799
1.182,-2.44,0.263,99.06,72.388,39.246
0.541,-3.091,2.766,102.905,65.308,50.72
-1.335,-3.024,4.656,105.286,47.485,62.073
-2.464,-2.589,5.646,100.769,25.452,53.711
-3.23,-2.053,7.881,89.478,-4.517,27.649
-3.273,-3.555,6.647,78.369,-35.706,10.315
-3.828,-2.139,4.455,62.5,-64.575,2.686
-1.704,-1.01,3.976,33.325,-92.041,-27.832
0.656,0.258,3.637,4.639,-104.675,-64.575
1.967,2.737,1.187,-33.203,-109.802,-64.697
2.335,2.627,-1.584,-69.092,-109.863,-47.729
3.091,-1.005,-3.034,-81.97,-104.675,-44.312
2.483,-2.263,-4.125,-71.777,-92.834,-23.254
2.421,-1.292,-4.412,-57.312,-78.613,-20.264
1.809,0.775,-4.0,-43.762,-62.134,-34.18
0.78,1.704,-3.603,-33.203,-47.791,-4.15
-0.675,2.402,-2.9,-27.71,-40.344,12.39
-0.727,3.531,-1.158,-25.818,-36.072,-25.696
-1.101,3.575,0.311,-21.301,-32.715,-33.325
-1.507,4.072,-1.254,-18.433,-29.297,-2.502
-0.727,2.823,-0.737,-17.273,-23.376,-26.794
0.153,3.158,1.766,-10.376,-12.573,-25.085
-0.201,1.943,1.579,0.977,3.784,28.931
-1.306,-0.488,0.105,11.963,10.254,43.274
-0.89,-1.952,-1.101,21.484,11.841,4.456
0.665,-2.369,-1.325,26.55,15.747,-23.254
0.79,-3.086,-1.952,30.945,18.25,2.93
-0.206,-3.354,-1.732,35.645,15.076,49.194
-0.857,-3.187,0.445,39.246,8.728,66.284
-1.01,-1.732,1.986,38.086,-1.526,42.114
-1.048,-2.364,4.244,37.109,-9.949,38.574
-0.991,-2.316,4.752,39.673,-14.832,75.195
-2.163,-1.555,6.039,37.903,-26.611,111.389
-2.766,0.493,2.493,23.193,-39.001,101.318
1.426,5.704,-0.967,-3.479,-48.767,87.952
3.297,-2.967,5.637,-28.564,-35.645,45.044
5.422,5.891,-1.488,-52.917,-20.386,23.743
3.799,2.608,-1.737,-89.172,-4.028,38.879
0.445,-3.455,-0.943,-87.524,-2.686,30.457
-0.976,-5.426,-3.297,-51.758,-15.137,21.057
1.756,-4.536,-4.154,-20.63,-21.301,-62.195
2.775,-3.201,-4.417,-5.31,-15.747,-89.661
2.35,-1.565,-3.579,2.502,-4.578,-19.287
1.904,-1.024,-2.498,4.089,1.648,33.264
0.354,-0.077,-1.78,2.808,-0.977,35.339
-0.498,0.871,0.651,0.244,-11.902,23.499
0.761,3.527,1.163,-5.798,-18.616,23.804
2.182,2.943,-0.268,-15.076,-17.334,3.174
1.239,0.364,-0.072,-10.315,-11.78,18.677
-0.373,-0.785,1.761,6.165,-11.23,54.138
-0.598,0.77,2.498,11.841,-16.479,30.823
-3.019,0.507,2.522,10.315,-28.259,7.202
-4.852,-0.713,2.876,12.024,-51.758,1.099
-3.034,-1.254,3.517,12.451,-69.702,-44.25
-2.641,-1.727,2.67,14.282,-81.909,-55.42
-1.952,-1.416,1.747,10.803,-89.05,-40.771
0.928,-1.115,1.034,1.709,-85.815,-64.148
1.713,-2.196,1.125,-3.601,-74.707,-63.843
1.665,-2.196,0.646,-4.761,-64.27,-16.785
1.574,-2.034,0.684,-6.958,-53.894,19.043
1.101,-2.469,0.416,-7.751,-48.096,20.508
0.502,-2.182,0.263,-6.531,-44.8,28.564
0.565,-1.885,0.014,-5.371,-41.931,24.292
-0.005,-1.684,0.278,-2.686,-41.016,23.621
0.12,0.167,0.995,-2.686,-41.687,16.052
1.412,1.01,1.445,-8.118,-38.147,-14.465
2.589,0.943,0.77,-10.437,-27.527,-11.353
2.034,1.68,0.995,-11.536,-12.817,38.696
2.0,1.503,0.79,-14.16,-2.991,43.03
1.507,1.058,0.947,-14.648,4.883,20.325
0.88,1.043,0.89,-11.78,9.583,33.997
0.038,0.536,0.742,-6.958,9.705,47.852
0.254,0.536,0.56,-2.93,7.446,28.625
0.053,0.412,0.005,-1.709,5.127,10.498
-0.129,0.483,-0.043,-0.854,3.052,13.794
-0.479,0.335,-0.282,0.488,-0.549,22.888
-0.11,-0.507,-0.301,5.676,-3.906,13.855
-0.349,-0.234,-0.187,11.292,-6.653,2.014
-0.402,-0.029,0.062,11.78,-7.813,-0.061
-0.234,0.139,0.11,8.301,-7.874,-6.714
-0.392,0.139,0.397,4.395,-7.08,3.235
-0.388,0.024,0.713,1.77,-6.897,5.676
-0.373,-0.297,0.325,-0.244,-8.057,-7.69
-0.014,-0.038,0.301,-2.869,-6.958,-8.179
-0.129,-0.043,-0.11,-6.775,-4.761,1.282
0.072,-0.191,-0.268,-8.301,-2.625,2.808
0.766,-0.211,-0.498,-7.446,0.0,-5.432
0.742,-0.88,-0.646,-0.916,4.089,11.719
0.421,-0.775,-0.89,5.371,5.859,29.419
-0.172,-0.823,-0.804,10.254,5.798,30.518
-0.665,-0.794,-0.479,13.184,3.357,32.532
-0.584,0.0,-0.163,10.254,1.953,20.02
-0.785,-0.072,-0.072,4.761,2.014,21.912
-1.192,0.488,0.091,1.343,0.183,29.48
-0.665,1.101,-0.005,-5.066,-2.258,7.446
-0.325,1.436,0.335,-6.531,-2.441,6.653
0.325,1.431,0.574,-4.211,-2.441,4.517
1.646,1.503,0.517,-0.793,1.038,-17.029
1.756,0.89,0.287,6.775,5.92,-0.305
1.445,0.679,0.531,15.93,9.033,16.541
0.967,0.751,0.517,17.639,13.916,8.789
2.78,0.656,-0.636,12.268,20.691,-1.709
1.302,-0.067,-0.067,18.86,34.302,56.519
-0.397,0.77,-0.033,26.001,31.921,83.069
0.254,1.201,1.861,33.752,23.865,2.808
2.321,0.057,0.091,44.25,28.992,-76.355
0.148,0.091,-0.029,54.626,36.011,-31.372
-1.66,2.048,1.493,60.486,43.579,66.406
1.158,6.283,-1.474,29.358,55.664,49.805
0.847,-3.067,4.072,20.081,80.75,-6.226
-0.301,6.766,1.244,-6.714,98.633,-14.099
-0.301,0.603,2.125,-21.179,107.971,21.729
-1.699,-0.201,2.268,-31.189,106.201,44.617
-1.833,-2.153,1.125,-32.471,91.431,14.832
-4.388,-3.694,-0.196,-14.832,62.805,5.371
-6.13,-4.211,-0.574,16.663,14.282,27.527
-5.589,-3.311,-0.263,37.17,-27.954,4.15
-5.57,-1.948,0.311,49.683,-61.89,-8.789
-3.594,-2.747,0.651,42.419,-75.378,-85.022
0.349,-1.412,-1.57,26.611,-52.612,-149.719
1.053,0.335,0.474,9.583,-33.386,-132.385
-3.685,0.139,5.402,-12.939,-22.4,-84.839
-4.933,2.689,3.383,-44.983,-24.292,1.892
-5.355,3.326,2.555,-78.552,-26.855,33.081
-1.976,0.177,-0.598,-101.135,-35.278,-55.786
2.761,-1.172,1.273,-99.121,-33.936,-130.432
2.594,-0.536,-0.723,-70.068,-28.748,-49.805
1.828,0.349,-2.364,-23.01,-27.527,49.622
2.125,1.014,-2.388,9.277,-36.072,-20.203
3.685,1.459,-1.78,35.034,-39.063,-96.13
4.479,2.125,-3.106,51.209,-22.156,-34.18
3.115,1.895,-4.063,53.345,-5.981,41.382
2.268,1.675,-3.527,44.861,10.01,83.557
1.617,0.421,-7.896,29.846,23.254,55.908
2.177,-2.364,2.833,8.118,40.527,-49.683
1.436,0.273,-3.914,-17.09,61.646,-29.968
-0.613,0.9,-2.249,-33.02,71.655,88.44
-2.718,-1.962,-0.651,-31.006,59.509,136.597
-3.316,-2.321,-0.622,-17.395,28.687,6.653
-1.254,-2.048,0.215,9.155,-6.348,-124.634
0.043,-1.914,0.211,37.415,-15.259,-44.067
-0.33,-1.498,0.258,51.697,-15.991,23.315
0.273,-1.699,1.78,53.284,-11.414,8.789
0.957,-1.479,2.924,45.776,-2.869,8.972
-0.124,0.541,2.9,25.391,10.01,63.904
-0.613,3.441,4.268,-10.925,23.804,107.117
0.766,8.742,-0.794,-48.95,40.833,81.97
-0.402,6.292,-2.297,-92.59,50.537,28.992
-4.689,-1.297,-0.402,-86.792,27.893,-12.024
-2.9,-1.828,-2.201,-45.959,-15.808,-82.52
-1.258,-2.211,-2.613,9.766,-47.18,-79.468
0.617,0.421,-2.421,41.504,-56.58,-22.278
0.44,2.22,-3.034,43.03,-54.871,5.31
-0.723,3.785,-2.637,23.56,-51.819,14.771
-1.713,3.488,-2.105,-4.883,-52.185,-53.955
-1.483,2.206,-1.058,-15.015,-55.908,-81.97
-0.23,1.077,-0.1,-6.592,-55.725,-51.514
-0.79,0.134,0.148,8.423,-61.462,-45.593
-1.335,0.191,-0.79,17.395,-68.298,-51.758
-0.1,0.517,-0.785,12.39,-73.303,-66.162
1.211,1.072,-1.263,-7.324,-63.721,-58.411
2.512,0.857,-0.962,-31.128,-48.828,-64.453
4.168,0.703,-2.072,-53.772,-23.743,-62.988
1.756,-2.263,0.234,-40.527,-14.709,-32.166
0.866,-3.584,0.512,9.46,-22.095,-5.432
0.804,-2.637,0.129,57.068,-34.912,5.554
2.795,-1.01,-0.081,69.519,-34.912,-3.967
3.613,0.273,-1.192,52.734,-15.503,24.597
3.914,0.885,-1.766,21.362,7.935,52.307
4.101,1.364,-3.531,-20.691,33.752,1.953
1.708,-1.919,-1.723,-23.804,38.757,-40.344
-1.01,-3.618,0.66,20.691,25.574,78.308
-2.096,-0.373,0.818,58.228,-1.77,72.388
-0.378,2.364,0.77,45.41,-12.146,-18.494
2.799,1.78,1.067,5.859,7.507,-56.458
5.402,1.613,0.301,-36.987,48.584,-23.743
1.416,1.924,-0.694,-54.688,70.618,66.101
-3.579,-1.412,-0.703,-29.419,59.998,145.996
-5.058,-1.995,-1.244,8.972,23.01,84.473
-3.986,-0.569,-1.938,37.964,-17.822,15.686
-2.675,0.727,-1.68,36.255,-34.119,7.629
-0.66,1.488,-1.416,15.259,-31.128,5.127
0.392,1.66,-1.215,-13.0,-20.63,-13.733
-0.158,-0.225,0.321,-17.395,-19.653,-12.451
-0.287,-1.436,1.034,1.953,-26.001,5.493
0.383,-0.976,0.522,19.409,-31.677,-4.822
1.584,-0.852,-0.244,23.071,-27.344,-5.859
2.297,-0.234,-0.373,16.174,-12.817,33.142
0.904,1.144,0.201,1.16,-2.319,45.532
-0.33,0.019,0.579,-11.23,4.578,42.603
-0.22,-0.569,0.297,-15.686,13.245,32.288
0.311,0.962,-0.273,-23.865,20.203,4.883
1.316,-0.416,-0.345,-27.344,23.621,-55.359
-0.569,-2.072,-0.354,2.319,15.991,4.15
-3.201,-1.909,-0.124,50.232,-11.719,172.058
-4.8,2.876,-1.297,41.382,-48.828,114.929
-1.168,3.168,-1.115,4.883,-50.842,-8.728
3.139,2.948,-2.9,-37.781,-7.324,-61.279
4.34,2.522,-3.694,-63.232,52.063,1.587
-1.168,-1.761,-2.297,-41.809,85.999,76.965
-5.321,-1.885,-1.325,15.442,57.556,127.564
-6.364,0.651,-2.847,32.532,1.343,42.175
-4.785,2.957,-4.115,2.197,-55.176,-58.044
-4.924,2.938,-5.307,-41.87,-95.581,-96.069
-6.106,1.081,-3.742,-79.163,-157.044,-179.077
-7.216,0.55,-3.278,-84.9,-229.309,-166.321
-5.857,1.383,-3.455,-91.37,-283.203,-155.579
-5.01,4.436,-3.058,-121.216,-333.557,-132.202
-6.015,7.345,-2.598,-170.227,-374.939,-100.281
-5.383,10.159,-1.603,-234.375,-431.03,-154.602
-10.838,14.15,6.292,-288.147,-518.005,-125.244
-20.37,41.157,25.452,-394.348,-584.961,103.821
14.595,62.973,47.976,-730.469,-377.075,-247.131
135.128,23.466,24.749,-790.649,841.675,504.211
141.631,-5.948,-43.674,-96.497,1999.939,645.813
61.264,14.221,8.991,895.935,1813.843,1111.938
2.775,40.468,54.489,209.778,1433.35,-321.045
6.838,-55.967,38.075,30.334,853.394,197.693
7.211,-28.673,26.026,359.985,395.996,605.53
-4.259,7.8,31.395,286.56,25.94,216.003
5.493,-5.245,32.056,159.729,-17.639,-107.483
12.882,-20.524,21.174,111.633,41.504,26.794
3.474,-13.839,16.437,26.611,85.388,84.9
-0.282,-12.815,15.092,-48.401,82.703,23.315
-3.996,0.646,13.796,-79.956,75.562,129.517
-7.781,5.245,10.829,-132.263,66.162,52.917
-8.522,8.977,5.694,-196.899,49.744,-95.642
-3.594,7.479,0.292,-259.277,26.917,-133.118
-6.068,5.398,-0.435,-286.926,-0.732,-98.572
-7.168,9.676,-0.569,-311.585,-48.889,-111.206
-4.182,14.437,-2.407,-353.455,-97.29,-212.708
-6.532,21.332,-8.709,-396.484,-153.442,-283.386
-2.187,22.466,-9.092,-427.734,-207.947,-303.955
-0.962,13.485,-7.345,-386.78,-220.398,-254.456
-3.23,15.03,-5.747,-317.749,-198.303,-83.313
-2.211,12.571,-4.039,-260.193,-151.978,-77.454
-3.311,10.666,-2.153,-218.506,-114.868,-46.082
-5.359,11.834,-1.919,-207.642,-103.333,-73.669
-3.704,9.886,-3.182,-205.139,-110.535,-91.553
-4.627,8.963,-4.666,-189.453,-111.023,5.371
-3.522,9.8,-5.675,-179.382,-116.882,-167.603
-2.393,7.23,-5.776,-143.311,-126.526,-226.196
-3.268,5.809,-7.843,-76.294,-126.16,-137.634
-1.842,2.541,-5.675,-20.691,-118.774,-142.822
-1.345,-1.163,-4.666,61.584,-104.553,-157.288
1.058,-1.57,-3.335,101.502,-79.102,-205.566
0.01,-2.206,-3.354,103.455,-55.542,-124.939
-0.952,1.254,-1.258,71.838,-57.251,-42.664
-2.421,1.876,1.818,30.334,-56.519,-78.247
0.976,4.532,-0.727,-33.813,-53.772,-130.066
1.656,2.608,0.842,-81.543,-46.021,-103.088
0.531,1.675,2.0,-109.436,-50.476,-71.106
0.345,-0.498,2.311,-111.511,-54.443,-55.725
0.665,-0.976,3.508,-90.942,-54.443,-56.824
0.651,-1.019,1.426,-57.19,-54.321,-77.576
1.029,-1.732,-0.502,-28.992,-47.852,-75.928
2.699,-1.593,-0.153,-17.761,-35.034,-27.344
1.306,1.215,1.684,-27.527,-19.409,58.716
-0.077,0.574,1.201,-42.053,-13.672,85.876
-1.316,-1.704,1.125,-57.8,-17.7,10.071
-0.397,-2.866,1.058,-60.059,-22.644,-47.729
0.177,-3.417,0.373,-49.377,-25.513,2.869
-0.799,-2.35,0.713,-39.612,-27.161,89.233
-0.593,-0.947,0.278,-45.898,-30.823,115.967
-1.904,1.89,-0.23,-74.341,-34.729,112.061
-0.88,2.345,-0.809,-117.554,-39.307,11.536
-3.948,1.077,1.22,-143.25,-56.702,-74.707
-1.708,0.555,-0.407,-157.227,-76.599,-107.056
0.828,-1.163,0.22,-156.738,-83.557,-116.821
1.771,-3.0,-0.373,-141.419,-86.731,-112.854
0.536,-1.584,-0.1,-122.07,-86.426,-56.58
0.158,2.761,0.081,-122.131,-81.787,2.747
1.335,0.656,-0.239,-127.991,-69.458,0.0
3.139,1.383,-1.464,-132.202,-52.368,-10.254
2.498,0.144,-1.225,-128.479,-29.48,41.748
1.718,0.144,-1.134,-116.394,-9.766,67.078
2.737,-0.675,-1.474,-99.976,2.808,54.077
1.981,-1.225,-0.66,-68.665,9.216,51.209
1.383,-1.747,-1.043,-38.696,8.179,37.659
3.072,-2.105,-1.345,-10.742,6.958,-0.061
2.101,-1.464,-1.732,9.766,7.69,21.973
0.115,0.675,-2.335,16.785,2.93,67.627
0.589,0.282,-2.996,18.188,-0.549,33.936
1.163,-0.306,-3.029,23.804,4.578,-21.301
0.857,-0.057,-2.598,36.011,17.578,-8.118
0.928,0.971,-2.163,52.246,32.532,64.331
-0.718,-0.234,-0.641,70.74,37.964,130.188
-0.373,0.105,-0.876,92.102,34.668,132.08
3.622,2.105,-3.129,93.506,39.917,105.835
4.651,2.043,-3.101,89.783,56.763,69.58
0.019,1.239,-0.617,103.21,52.612,46.936
-3.168,2.622,0.421,131.409,22.827,95.764
-1.938,3.397,0.617,160.584,-12.573,13.672
-2.67,3.546,3.235,192.078,-32.043,36.072
-0.651,3.139,5.972,217.163,-35.95,15.259
-0.153,2.909,4.168,221.619,-5.066,-18.494
-0.345,1.632,3.78,206.848,29.358,-85.754
-0.656,1.392,3.895,183.777,67.566,-55.725
-2.474,-0.354,2.531,167.603,85.571,29.724
-5.154,-1.297,2.976,146.057,78.369,42.786
-4.804,-1.321,2.383,116.699,66.345,35.278
-3.752,-1.962,0.191,86.487,61.768,59.143
0.746,-0.885,-0.12,45.166,78.125,68.42
-0.057,-0.823,-0.55,7.568,92.957,52.673
-4.905,-3.383,-1.436,-12.207,83.069,57.983
-2.833,-5.201,0.139,8.484,55.908,62.256
-1.933,-5.087,-0.79,54.199,26.978,45.471
-2.426,-3.445,0.163,111.267,-5.31,-2.319
-0.641,-1.292,0.22,141.48,-25.94,-72.632
-0.656,-1.613,0.187,152.893,-35.706,2.014
0.991,-1.818,2.077,128.784,-40.222,44.434
0.603,1.794,1.66,79.468,-36.682,-37.292
0.703,5.675,1.751,5.371,-27.039,-131.165
0.737,5.584,-0.474,-50.11,-18.066,-47.058
1.536,5.484,0.574,-98.084,-6.836,75.928
0.522,1.799,0.005,-108.276,0.0,56.58
-0.005,-1.622,-1.254,-82.031,-6.287,4.456
4.326,-4.656,-1.9,-19.287,-14.526,-53.04
4.216,-4.158,-1.866,45.105,-14.954,80.811
1.986,-0.134,-2.656,77.515,-29.48,142.578
-0.23,1.943,-1.948,59.57,-50.049,106.445
1.105,3.761,-1.168,14.343,-55.969,16.602
2.579,1.962,-4.163,-37.72,-47.485,-68.848
3.589,0.89,-2.996,-67.993,-32.959,-97.961
1.019,-1.12,-1.794,-66.345,-23.193,-38.574
0.172,-2.129,-2.852,-19.043,-25.33,-9.705
-0.842,-3.752,-1.546,55.237,-35.706,45.776
-0.239,-1.072,-1.297,127.502,-57.739,124.817
0.038,1.771,-1.871,128.479,-72.693,84.351
-0.01,2.445,-0.474,85.938,-71.594,-9.644
0.086,1.976,-1.469,33.691,-56.152,-68.726
1.416,1.809,0.014,-8.545,-34.607,-71.35
2.345,-0.134,1.79,-43.335,-13.184,-43.701
-0.957,-0.024,1.833,-61.584,-2.136,15.259
-0.196,-2.058,0.325,-57.068,-3.174,13.611
-0.622,-2.598,1.737,-21.851,-13.428,-55.786
-1.101,-2.689,-0.636,25.513,-26.733,33.997
-1.699,0.368,-0.177,43.152,-35.095,147.461
-1.814,4.216,-0.345,10.925,-37.109,73.914
-0.416,4.766,-2.082,-52.49,-26.55,-60.852
-1.058,5.637,-4.436,-112.915,-17.639,-94.421
-1.957,0.11,-3.354,-123.718,-24.048,-107.361
-2.216,-3.847,-2.086,-60.425,-39.429,-36.743
-1.445,-2.842,-1.68,17.151,-49.194,48.706
-1.335,0.66,-1.933,63.477,-56.213,37.598
-1.278,2.306,-2.321,56.03,-47.791,33.813
-0.679,4.168,-1.89,21.79,-32.471,20.142
1.364,4.398,-2.55,-30.273,-7.385,-38.513
0.904,2.445,-3.0,-57.922,12.512,-35.095
0.474,-1.215,-1.373,-39.734,22.156,22.339
0.278,-2.943,-0.66,27.893,16.357,74.463
-0.287,-1.067,-0.78,84.778,2.441,133.301
-0.34,1.565,-1.134,102.051,-10.864,104.126
-0.23,1.885,-0.665,81.97,-4.272,36.804
2.005,3.445,-1.196,40.222,23.621,26.672
4.656,3.455,-2.651,-9.399,72.693,67.993
1.196,4.469,-3.675,-43.213,101.257,83.74
-2.929,-2.149,-1.828,-17.395,89.905,155.518
-4.149,-0.761,-2.216,41.382,52.429,196.777
-2.938,1.455,-4.0,92.773,10.498,110.413
-0.598,1.55,-3.388,107.971,11.841,40.222
0.574,1.943,-4.575,94.788,42.236,35.156
-1.699,3.45,-5.053,48.035,72.571,47.241
-5.718,1.838,-4.369,-0.977,62.561,-0.305
-9.542,-0.641,-1.962,-38.94,-5.737,-75.012
-11.709,0.512,-1.861,-60.547,-118.53,-104.492
-11.623,2.426,-2.354,-86.365,-217.835,-147.156
-8.948,4.484,-3.957,-127.075,-317.688,-180.481
-6.91,5.804,-5.446,-165.283,-386.963,-180.481
-7.072,7.551,-5.321,-206.299,-455.994,-137.512
-7.144,9.604,-3.819,-251.221,-538.94,-179.627
-15.045,15.365,7.427,-282.898,-627.564,-74.402
-29.481,59.628,45.301,-487.671,-675.171,294.434
73.878,45.66,48.124,-811.218,-186.707,-623.535
144.048,51.254,-9.326,-872.925,1521.545,598.511
128.4,1.292,-34.214,146.668,1379.211,512.878
19.839,64.265,-14.829,777.161,1779.785,673.096
10.145,-12.236,50.646,132.202,1544.312,-66.589
-3.278,-57.513,31.166,-203.857,976.013,120.544
-19.715,-28.266,20.15,-244.751,330.994,336.365
-8.159,-21.036,16.643,-267.944,-83.008,85.327
3.656,-20.418,11.81,-122.864,-183.228,-30.334
2.115,-14.705,9.934,41.565,-146.118,-210.449
-0.493,-12.365,9.039,97.534,-74.768,-120.361
-2.287,-5.201,6.493,72.693,-19.287,-129.15
-2.431,4.646,3.847,-9.338,6.775,-98.999
-6.35,9.68,-0.282,-132.08,-0.793,-117.92
-2.005,10.135,-2.56,-248.108,-38.635,-180.176
-1.383,7.35,-3.852,-297.546,-85.632,-199.829
-2.885,9.972,-2.766,-306.58,-151.978,-205.872
-3.488,11.996,-3.953,-277.588,-205.994,-201.294
-2.842,11.441,-4.144,-224.365,-238.098,-263.489
-3.101,15.513,-5.503,-177.979,-247.986,-164.795
-2.369,13.159,-4.421,-164.856,-243.897,-153.626
-3.35,11.695,-5.087,-156.677,-236.45,-125.549
-1.799,12.709,-7.398,-165.161,-223.816,-136.414
-0.641,7.986,-8.532,-156.006,-202.393,-115.112
-1.378,4.919,-6.23,-128.357,-170.166,-57.007
-2.177,4.56,-5.283,-106.384,-145.386,-50.232
-3.091,5.393,-6.417,-92.285,-127.686,-85.571
-3.216,4.68,-5.934,-79.224,-119.568,-117.065
-0.799,2.627,-5.106,-60.791,-114.38,-151.306
2.177,0.22,-3.723,-31.921,-100.708,-180.359
1.613,-0.641,-3.091,-1.221,-84.961,-99.121
0.005,-0.565,-1.933,24.109,-73.181,22.888
0.345,0.933,-0.622,26.794,-67.627,15.747
1.56,1.077,-0.474,16.785,-57.678,-40.71
1.914,0.603,0.053,3.784,-40.527,-46.448
2.751,-0.105,2.225,-8.362,-23.132,-59.326
2.292,0.651,2.909,-19.226,-3.845,-47.974
1.397,1.794,2.598,-29.907,10.559,9.766
-0.11,1.589,2.728,-36.56,14.099,0.488
-1.503,-0.402,0.459,-33.63,6.897,-41.931
-0.416,-2.268,0.182,-19.714,1.038,-61.462
1.215,-0.933,0.823,-3.784,5.554,-7.141
-0.986,-0.292,1.005,2.93,7.324,69.214
-3.283,-0.656,0.397,2.319,-3.296,31.799
-2.369,-0.737,0.349,-2.808,-16.602,-31.128
-1.292,-1.378,0.038,-7.568,-20.447,-30.029
-1.086,-1.622,-0.167,-14.343,-20.508,2.197
-1.144,-0.833,0.455,-25.391,-19.714,12.451
-1.689,-1.33,0.991,-34.607,-21.729,-6.775
-1.349,-1.34,1.201,-42.664,-25.391,-14.465
-1.421,-0.694,0.938,-52.063,-26.917,6.714
-1.254,-0.474,1.048,-68.054,-29.114,10.803
-0.1,0.598,0.77,-86.609,-29.541,-2.258
0.033,1.335,0.89,-98.755,-28.564,13.672
-0.756,0.823,0.799,-108.032,-30.762,23.01
-1.038,-0.383,0.316,-110.718,-36.621,-0.977
0.766,1.766,-0.292,-115.173,-35.706,7.08
1.928,-0.488,0.455,-116.15,-25.574,21.362
1.852,0.646,0.526,-115.906,-13.733,52.124
1.584,1.364,-0.737,-125.122,2.014,79.59
2.019,0.024,-1.187,-131.043,13.0,38.208
2.603,0.483,-0.957,-128.296,24.231,51.27
0.613,0.01,-0.177,-116.821,25.635,85.205
-0.871,-0.278,0.273,-105.53,13.672,43.274
-0.105,-0.574,0.254,-92.712,-1.587,-0.366
1.809,-0.483,-0.746,-82.214,-4.761,10.742
1.354,-1.306,-0.684,-68.481,-1.953,29.968
0.957,-1.134,-0.435,-54.871,-5.249,10.986
0.383,-1.708,-0.991,-42.297,-12.512,-14.404
1.388,-2.742,-0.464,-21.606,-20.264,-21.973
1.196,-1.067,-1.225,-7.568,-20.386,31.006
-1.373,-0.124,-2.292,-2.319,-26.672,40.405
-0.933,-0.421,-1.737,1.77,-32.776,-39.246
-0.029,-0.593,-2.694,13.55,-28.625,-45.288
-0.349,0.957,-1.814,30.029,-19.959,13.733
-0.589,-0.258,-0.694,47.974,-17.273,-14.343
-0.794,0.33,-1.44,71.899,-13.367,-44.922
0.483,0.024,-1.153,91.736,-2.075,-43.884
0.995,-0.737,-1.838,107.117,12.695,-25.085
0.191,0.876,-2.689,119.263,27.832,34.79
-0.718,1.211,-1.962,123.901,34.607,49.011
-0.794,2.163,-0.761,121.277,36.804,-9.094
-1.56,1.895,-1.292,117.127,36.987,-71.594
-1.168,0.617,0.388,123.108,41.504,-82.153
-1.546,-0.421,0.694,136.475,44.25,-38.025
-1.809,1.23,0.761,145.386,42.786,7.629
-1.57,3.015,0.048,140.625,41.626,-9.705
-1.656,5.24,3.034,117.004,45.898,-47.119
-2.168,5.249,4.78,91.248,55.725,-45.288
-2.096,3.919,4.666,63.11,63.477,-17.578
0.885,2.225,3.842,47.791,77.454,-17.029
1.081,-1.187,3.039,51.147,97.534,-17.212
0.134,-2.957,2.976,75.317,109.497,20.691
-0.78,-4.02,2.474,103.577,106.751,96.497
-2.44,-2.857,0.287,128.601,89.478,154.663
-2.823,-1.704,2.263,137.695,69.214,144.287
-1.861,-1.249,1.354,127.502,57.8,51.086
-2.603,-0.943,0.493,103.21,58.838,-53.04
-1.699,-3.005,0.694,82.214,64.148,-79.712
0.311,-2.517,0.086,58.594,70.618,8.423
-0.321,-0.507,-0.12,24.78,67.505,89.722
-0.335,0.593,-0.301,-16.602,68.359,145.691
1.613,-0.196,-1.196,-54.688,74.646,103.027
-4.01,-3.685,0.952,-59.387,57.983,45.715
-4.106,-2.287,1.062,-32.776,14.038,71.411
-0.928,-0.732,0.311,-7.813,-19.043,31.433
2.646,-0.033,0.732,15.381,-41.321,-24.17
2.799,1.029,1.043,27.893,-49.255,20.386
3.479,3.584,0.723,14.465,-49.438,77.881
2.507,4.694,-1.56,-26.611,-42.542,56.335
1.771,2.058,-2.742,-55.786,-39.978,-36.926
4.005,-0.445,-0.354,-52.063,-36.194,-80.139
4.417,-1.225,-1.818,-19.775,-30.884,-52.063
2.321,-1.742,-1.938,18.188,-31.86,38.269
0.177,-1.483,-1.957,53.223,-52.063,65.918
0.258,-0.622,-1.766,60.059,-68.97,37.292
1.196,0.23,-2.211,41.748,-69.58,-10.254
1.632,-0.502,-1.967,11.902,-55.481,-31.921
0.77,0.895,-3.345,-13.733,-44.678,-15.381
0.297,0.44,-1.249,-29.48,-34.851,8.362
-0.66,-1.168,-0.967,-15.93,-41.687,-33.875
-0.727,-2.35,-0.134,22.583,-56.946,-72.876
0.129,-1.517,-0.167,55.481,-64.087,-21.484
0.885,-0.11,0.12,57.495,-59.143,-3.845
1.852,0.799,0.732,34.363,-42.419,-21.301
0.919,1.737,0.086,-0.488,-24.414,-38.94
1.306,0.766,-0.727,-41.992,-6.653,-42.725
0.23,-1.718,0.502,-48.645,-3.906,4.333
-1.488,-3.187,0.818,-21.301,-17.578,60.181
-1.952,-1.354,-0.115,13.245,-42.908,39.185
-0.258,0.78,-0.861,21.606,-52.673,3.296
1.292,2.713,-2.369,2.197,-42.786,-10.01
2.637,3.876,-2.862,-41.748,-17.334,-10.315
1.378,4.886,-4.359,-81.604,2.686,-7.568
-2.287,-1.038,-1.981,-75.928,-2.136,61.279
-4.948,-2.723,-2.201,-14.954,-39.185,100.586
-4.398,-0.469,-2.201,45.044,-90.759,-5.798
-0.335,1.211,-1.914,62.5,-103.272,-73.364
1.014,2.651,-2.852,46.021,-85.327,-46.997
1.139,3.263,-2.46,3.296,-53.467,2.563
2.536,3.015,-2.799,-36.926,-24.17,-26.672
-0.488,-0.766,-1.416,-40.222,-6.958,9.888
-2.158,-2.043,-0.909,4.15,-14.648,89.6
-2.129,-0.426,-1.421,38.025,-29.602,32.776
-0.244,1.412,-2.082,50.293,-28.809,8.789
1.522,1.005,-2.527,42.053,-2.319,34.363
2.488,2.33,-3.244,22.278,46.448,101.685
2.838,3.484,-4.503,-4.761,93.628,93.506
-2.01,0.971,-3.383,-5.188,107.605,117.249
-4.632,1.125,-3.192,18.738,85.754,184.448
-4.689,2.632,-3.708,29.602,48.767,98.267
-2.9,1.302,-4.316,34.912,20.02,-11.536
-1.622,0.191,-4.154,41.626,13.306,8.484
-2.862,0.239,-4.063,33.997,3.052,20.264
-8.317,2.493,-1.718,0.122,-44.434,-3.357
-12.054,4.862,-2.474,-56.396,-118.53,-82.275
-7.838,3.871,-3.493,-116.882,-209.778,-261.841
-4.469,2.469,-2.656,-134.399,-279.602,-247.07
-6.489,3.603,-1.55,-149.475,-332.336,-152.466
-5.666,5.881,-1.349,-184.937,-392.822,-168.335
-5.709,6.331,-1.885,-216.858,-443.787,-173.767
-10.719,13.437,4.469,-271.24,-523.682,-94.36
-24.763,42.444,33.305,-455.383,-619.69,230.103
12.599,64.523,46.301,-737.0,-490.54,-546.265
134.018,45.1,22.557,-885.864,997.864,822.449
149.484,20.423,-38.214,-290.955,1999.939,693.787
62.035,31.419,26.098,811.89,1848.755,-91.736
6.771,35.377,34.979,230.896,1488.831,-43.762
-3.383,-43.349,47.842,-31.677,877.38,213.623
4.522,-36.037,31.716,209.9,407.837,397.217
-7.948,-0.502,36.463,184.082,156.799,192.627
6.484,-18.155,33.984,71.106,68.726,-253.174
22.323,-33.113,15.308,90.576,148.743,53.528
0.976,-13.686,12.719,35.4,109.314,87.28
0.699,-3.541,9.666,-101.196,18.494,44.189
-2.962,-1.392,6.752,-191.834,-32.227,-16.113
-2.259,-5.345,5.087,-210.815,-69.275,-118.897
-0.11,-7.991,4.776,-160.461,-62.866,-35.645
-2.603,-2.206,5.79,-137.634,-34.912,26.184
-6.915,5.465,6.283,-150.269,-14.954,-36.56
-4.063,11.264,0.675,-190.064,-12.939,-142.944
-5.742,13.489,-1.321,-247.559,-26.123,-100.037
-8.187,14.576,-2.005,-297.485,-63.721,-69.031
-9.398,9.857,-0.464,-304.077,-121.094,-188.049
-7.35,15.313,-3.149,-288.33,-203.674,-353.088
-2.689,14.82,-3.546,-257.568,-239.624,-311.89
-3.737,13.351,-4.431,-233.521,-227.844,-120.85
-8.006,16.614,-4.216,-254.273,-210.754,-77.942
-1.727,16.509,-8.039,-275.574,-210.022,-268.127
-0.254,8.264,-4.613,-241.882,-180.298,-85.388
-1.809,6.57,-3.053,-200.806,-136.719,-11.169
-3.086,7.383,-2.632,-159.18,-106.079,-74.463
-4.445,6.498,-3.216,-125.061,-101.44,-117.188
-4.407,6.235,-2.546,-101.135,-107.544,-98.877
-3.441,6.982,-3.196,-84.778,-112.183,-77.393
-2.857,6.264,-4.78,-76.477,-110.718,-93.384
-0.215,3.795,-4.819,-58.838,-100.22,-148.499
1.479,1.158,-5.106,-28.259,-77.698,-165.039
1.445,-0.947,-3.909,3.479,-56.702,-102.966
1.373,-0.282,-2.517,32.837,-36.682,-32.227
0.675,0.713,-1.378,44.25,-25.208,-10.803
1.656,1.22,-1.11,43.335,-13.306,-42.908
2.11,-0.297,-0.66,45.105,5.859,6.409
-0.368,-0.254,-0.33,53.65,12.207,95.52
0.0,0.297,2.46,51.758,6.897,49.011
0.665,0.105,3.192,39.856,3.54,-73.364
0.167,0.45,4.589,26.855,5.127,-60.303
-0.67,1.038,4.761,14.526,5.249,70.129
-0.287,1.503,2.914,-3.845,9.949,70.313
-0.029,-0.857,1.675,-23.621,15.259,-45.898
1.503,-0.924,2.067,-35.767,23.376,-95.581
1.177,-0.498,2.747,-40.833,32.593,-26.367
-1.809,-0.593,2.766,-34.485,24.658,53.223
-3.235,-0.01,1.34,-30.762,3.845,21.912
-2.354,-0.416,0.392,-26.794,-22.644,-65.491
-1.445,-1.235,-0.306,-16.602,-37.415,-73.73
-0.378,-1.646,-1.148,-2.686,-44.434,-48.157
-0.043,-1.948,-1.187,6.714,-44.678,-36.865
-0.225,-2.091,-1.187,9.46,-43.335,-29.541
-0.746,-1.627,-1.412,4.761,-41.504,-18.25
-0.9,-0.818,-1.349,-5.554,-40.405,-9.338
-1.129,-0.613,-0.412,-19.897,-41.687,-14.465
-1.488,-0.756,-0.187,-33.569,-46.387,-38.208
-1.053,-0.474,0.919,-44.434,-50.049,-31.372
-1.364,-0.23,1.302,-55.176,-56.885,2.319
-1.704,0.153,2.34,-66.04,-65.125,10.315
-1.043,0.024,2.881,-78.552,-75.378,-2.319
-0.043,0.857,2.44,-91.736,-78.552,-5.188
1.919,-1.732,2.847,-98.999,-74.951,-8.667
1.134,-1.302,3.67,-100.586,-69.58,39.795
1.254,5.058,0.679,-119.263,-59.326,123.596
4.101,1.948,-0.321,-145.935,-41.504,55.481
6.431,1.086,-2.201,-151.123,-15.32,28.137
2.139,-0.062,-2.249,-144.348,4.15,118.286
1.522,2.627,-2.924,-145.752,16.479,92.529
-0.139,0.263,-1.833,-138.245,11.292,40.588
-0.861,-2.306,-1.172,-103.21,0.61,75.5
-1.727,-1.019,-1.651,-72.449,-7.385,111.939
-1.158,-1.053,-1.378,-65.063,-14.648,33.02
0.392,-1.235,-1.34,-63.049,-14.526,5.188
-1.081,-1.302,0.268,-60.913,-13.916,75.989
-0.541,-1.584,0.139,-61.707,-17.273,26.367
0.215,-3.22,0.234,-55.603,-21.667,-16.174
0.622,-2.933,1.053,-43.03,-19.531,37.292
0.316,-2.048,-0.234,-35.156,-17.456,36.499
0.866,-1.493,-1.292,-33.691,-13.489,-9.521
0.268,-2.541,-1.416,-22.156,-5.249,8.728
-1.459,-0.651,-1.842,-7.446,-3.113,34.729
-1.579,-0.746,-2.421,3.54,-3.662,-19.226
-1.924,1.019,-3.292,18.25,-0.61,-34.851
-1.134,0.589,-2.388,34.058,3.906,-33.63
-0.349,0.986,-1.546,56.091,12.146,-23.071
-0.541,0.421,-0.483,75.684,20.081,-15.137
1.33,0.675,-0.469,82.275,30.273,-79.163
2.991,0.211,-0.971,84.351,55.664,-104.858
1.287,0.488,-0.249,86.914,72.937,-28.992
0.593,0.517,-0.488,83.557,79.041,-20.508
-0.11,-1.55,-0.455,90.149,72.021,-61.951
-0.225,0.502,0.187,101.807,61.34,-28.625
-1.11,-0.78,0.239,120.606,42.969,-28.931
-0.455,-0.589,-0.675,138.245,29.968,-42.969
-0.014,-0.713,-0.397,157.41,25.208,-3.418
0.129,0.043,-0.546,170.349,23.438,32.471
-0.402,1.838,-0.976,169.251,22.461,39.856
-1.771,3.034,-0.187,158.142,20.203,39.612
-1.115,3.795,0.952,141.602,20.996,13.428
0.45,4.977,2.211,117.737,34.058,-1.038
-0.292,3.34,1.976,99.365,49.011,11.963
-0.598,1.302,2.192,90.271,56.152,-8.118
-1.861,0.526,2.483,84.29,59.021,-18.25
-0.546,-0.191,2.68,82.703,63.721,-0.854
-0.766,-0.723,2.402,86.365,65.796,20.203
-0.938,-1.876,1.546,86.243,63.538,52.856
-0.139,-2.316,0.56,83.923,64.575,95.703
-1.943,-1.014,0.211,64.514,61.646,76.294
-0.971,-0.641,0.014,40.894,64.453,41.931
0.593,-0.928,-0.89,4.272,68.726,-30.334
-0.991,-1.613,-1.139,-28.503,67.2,-41.87
-1.263,-1.55,0.096,-44.678,55.176,-23.254
-2.522,-3.364,1.254,-32.715,30.945,-23.743
-2.378,-3.972,0.177,4.517,5.371,-36.682
0.134,-3.665,1.23,57.434,-16.113,-26.917
0.493,-2.015,1.651,95.825,-27.527,63.049
1.68,1.833,0.88,88.013,-30.029,75.134
2.651,4.886,1.445,41.443,-18.738,28.32
3.115,7.068,-0.603,-15.747,-1.038,11.536
1.938,8.053,-3.106,-90.149,17.09,-7.69
2.22,1.536,-4.201,-123.962,21.423,-87.83
2.833,-3.981,-2.952,-92.59,12.756,-122.864
3.852,-4.522,-2.455,-8.789,6.287,-11.475
2.79,-2.158,-2.646,53.284,2.136,91.492
1.0,0.962,-3.158,84.29,-10.071,141.846
1.024,2.062,-2.713,74.768,-15.625,96.619
1.144,2.364,-1.991,48.889,-10.986,32.166
1.192,1.287,-2.541,11.108,0.305,-41.382
1.704,1.177,-2.426,-19.714,10.986,-48.035
0.579,-0.976,-1.062,-34.119,16.541,-7.385
-0.689,-2.273,-0.163,-14.221,5.432,25.269
0.225,-2.68,0.038,14.038,-7.996,18.86
0.335,-1.531,-0.11,38.025,-20.081,43.213
0.904,1.014,0.053,34.302,-23.193,67.2
1.287,4.35,-0.517,-1.038,-15.869,35.706
0.435,5.106,-3.048,-50.964,-5.066,-37.72
0.469,1.45,-2.661,-69.702,-4.028,-60.608
-2.029,-1.096,-2.426,-40.527,-17.883,24.902
-2.996,0.12,-3.484,-4.272,-37.781,39.246
-1.756,1.244,-3.484,19.104,-54.321,-35.034
-0.239,1.766,-3.278,20.508,-48.401,-37.476
0.593,1.885,-3.436,7.874,-34.546,-3.235
0.44,1.809,-2.019,-8.667,-21.179,12.268
-0.077,1.239,-0.971,-11.292,-20.142,11.108
0.613,-0.144,-1.053,9.766,-32.715,12.878
0.196,-0.857,-0.091,48.096,-56.824,34.912
1.043,0.105,-0.531,66.284,-77.576,23.621
1.086,1.814,-1.239,57.434,-91.125,-1.038
0.359,2.732,-0.775,27.832,-96.069,-72.51
0.952,2.914,-1.488,-11.658,-92.896,-135.62
0.435,3.311,-1.943,-47.302,-88.013,-124.268
1.952,-2.206,-1.871,-35.339,-79.285,-43.335
-0.206,-5.594,-0.182,57.434,-49.438,217.224
0.254,-1.302,-0.976,124.085,-37.109,279.907
0.622,2.996,-2.574,129.578,-20.02,195.129
0.565,3.909,-2.565,86.975,14.648,135.986
-0.986,5.733,-3.536,32.227,45.044,104.065
-3.752,3.565,-5.067,-27.466,71.655,78.552
-6.13,0.962,-4.388,-51.025,72.205,52.612
-5.838,0.067,-4.364,-48.767,59.204,30.334
-5.962,-1.163,-4.957,-32.471,32.532,0.854
-5.364,-0.67,-4.163,-23.315,1.343,-35.706
-9.235,0.139,-3.177,-29.846,-60.364,-57.617
-10.331,2.311,-3.498,-51.88,-134.094,-115.601
-8.656,2.89,-2.043,-80.139,-224.67,-159.912
-10.235,4.46,-1.603,-121.582,-311.646,-111.755
-9.733,8.178,-2.881,-181.763,-382.385,-138.855
-3.957,10.369,-4.656,-247.559,-451.294,-161.194
-7.79,13.475,1.756,-300.72,-510.193,-76.111
-14.355,25.759,17.49,-398.377,-605.469,-25.513
-19.145,61.599,46.043,-655.762,-609.192,77.881
115.715,49.708,31.759,-955.689,22.034,-268.86
154.522,53.072,-25.558,-757.446,1862.854,563.599
75.543,19.662,-26.505,310.852,1614.197,-115.173
40.597,53.814,43.875,549.072,1999.939,62.622
18.007,-22.72,48.598,-170.593,1578.613,179.199
-12.298,-48.66,19.911,-57.129,1114.136,775.452
-32.415,-18.72,15.7,-69.824,449.829,377.991
-23.935,-24.208,16.729,-99.792,74.28,411.377
-7.532,-14.576,20.303,6.653,-122.559,1.587
-2.723,-12.566,14.245,147.034,-128.967,-163.147
-6.795,-9.288,9.57,189.453,-114.014,119.019
-8.484,2.149,8.269,128.967,-109.009,-171.875
-7.163,4.173,6.034,40.1,-82.214,-233.826
-0.746,8.02,2.335,-103.699,-44.312,-172.607
2.254,7.039,-0.761,-236.206,-14.038,-136.658
-0.483,3.187,-2.866,-301.209,-22.766,-145.996
-2.948,0.665,-1.737,-311.157,-61.89,-141.907
-2.862,2.464,-1.646,-289.185,-95.032,-108.765
-5.446,5.68,-3.263,-265.076,-133.972,-175.598
-4.957,7.235,-4.838,-245.117,-183.167,-256.104
2.11,9.613,-2.972,-235.107,-195.557,-239.929
1.45,10.068,-2.637,-239.38,-184.204,-172.913
-0.512,8.943,-0.641,-247.192,-189.575,-215.149
1.785,8.513,-2.747,-242.798,-190.308,-148.193
-0.024,8.733,-3.263,-240.967,-165.039,-2.136
-0.206,9.499,-5.197,-244.995,-154.175,-133.667
4.02,7.862,-5.125,-225.769,-151.062,-260.559
0.316,6.192,-4.618,-186.951,-137.634,-98.999
-1.866,5.379,-4.474,-152.405,-126.282,-62.5
-2.292,5.278,-5.383,-124.207,-133.545,-155.64
-0.694,2.79,-5.192,-94.36,-141.48,-194.58
-0.746,1.258,-4.953,-54.993,-141.785,-144.653
0.622,1.239,-4.158,-33.63,-130.92,-107.117
0.129,0.244,-2.527,-14.771,-117.065,-87.708
-0.129,0.249,-1.751,-0.977,-100.647,-61.34
0.23,0.364,-0.957,3.296,-84.167,-35.889
1.991,0.565,0.813,0.549,-54.932,-9.521
0.78,-0.311,2.043,-11.963,-27.832,-23.438
3.785,0.79,2.134,-39.368,3.174,-75.989
6.905,5.613,-0.325,-84.045,43.579,-149.048
-0.392,6.379,-1.34,-132.141,47.668,-189.819
-4.68,-2.517,-0.239,-145.081,15.259,-136.963
-2.048,-2.512,0.598,-110.413,-15.869,-197.022
0.392,-0.531,1.158,-58.716,-33.63,-319.092
0.833,-1.9,0.206,3.54,-18.066,-225.952
0.421,-2.431,-0.785,44.312,0.854,-96.191
0.373,-0.991,-1.426,59.143,12.695,-41.138
0.756,-0.038,-0.316,46.021,16.846,-21.484
-0.244,-0.976,-1.469,27.893,12.451,52.49
-0.421,-0.517,-0.431,7.263,4.272,84.412
0.124,-1.651,-1.459,-11.536,-1.465,15.564
0.024,-3.378,-0.675,-21.729,-11.658,-61.646
0.397,-3.479,0.675,-15.381,-17.029,-50.537
0.967,-1.89,2.029,-8.484,-23.682,-5.31
0.321,-1.713,2.096,-7.324,-35.461,10.62
-1.56,-1.12,2.393,-11.719,-54.382,53.223
-1.852,0.957,1.885,-28.687,-78.918,74.158
0.847,0.751,2.249,-48.889,-92.163,29.114
0.565,-0.014,2.507,-64.697,-103.149,-18.005
-0.904,2.254,2.402,-80.994,-115.418,29.297
0.33,4.838,0.799,-108.276,-120.056,52.429
4.436,2.871,-1.043,-134.583,-111.511,-24.841
3.766,1.852,-1.613,-139.099,-96.985,-24.536
2.192,0.852,-0.995,-124.512,-80.017,83.191
1.708,0.876,-1.258,-107.727,-65.918,81.482
0.206,0.268,-1.067,-92.59,-62.988,53.04
0.057,0.196,-0.172,-75.5,-62.988,43.152
0.144,1.053,-0.373,-70.129,-63.171,25.452
0.177,0.325,0.062,-67.993,-62.256,15.198
0.072,-0.766,0.306,-59.387,-61.401,4.395
0.971,-1.134,-0.608,-48.645,-57.8,-13.611
1.249,0.182,-1.756,-38.696,-47.729,-16.907
1.196,-0.067,-1.933,-27.954,-34.363,15.625
0.0,0.325,-1.785,-9.766,-21.79,11.108
0.732,-0.287,-1.876,12.024,-7.568,-42.725
1.464,-1.196,-2.527,39.063,12.634,-34.973
0.636,0.56,-2.799,66.162,36.438,-5.615
0.335,0.211,-2.512,83.801,52.795,17.212
-1.163,-0.603,-1.211,104.553,66.284,68.054
-0.225,-0.536,0.45,122.864,74.707,130.005
0.091,-0.775,-0.603,136.78,82.764,161.499
0.148,-2.201,-2.393,156.921,91.736,177.979
2.019,-0.163,-1.412,168.701,97.229,191.04
-0.809,5.044,-3.149,158.447,93.445,172.241
-0.373,2.512,-1.641,145.02,87.708,147.827
1.637,2.388,-1.493,130.92,85.388,67.139
-1.043,2.651,-0.263,110.413,81.848,-28.687
-2.335,3.192,1.45,99.304,74.707,13.855
-2.105,2.608,3.685,97.229,59.692,95.764
-1.904,1.995,3.661,98.084,47.424,66.895
-1.455,2.493,4.503,98.938,43.762,31.555
-2.952,0.569,2.096,106.506,36.743,93.384
0.943,-0.33,3.441,109.009,36.743,134.033
-2.785,1.876,2.89,96.558,33.997,125.916
-2.833,0.699,1.761,69.092,26.794,58.838
-2.177,1.335,0.029,41.077,27.588,44.373
0.321,0.995,-0.517,10.01,36.743,53.04
-0.967,-1.622,0.148,-2.502,37.964,18.311
-3.866,-2.455,0.0,2.563,19.531,-22.644
-3.694,-3.048,-2.474,23.132,-7.263,3.784
-2.278,-2.775,-1.287,46.509,-30.151,33.691
-2.512,-2.704,0.397,66.65,-51.941,13.55
-1.172,-0.794,0.498,70.374,-59.326,-68.298
1.043,-1.034,-0.091,57.617,-50.415,-154.297
0.804,-0.727,2.225,36.621,-25.269,-130.737
2.048,0.622,0.847,6.775,-4.822,-44.922
-0.991,3.378,-1.014,-34.363,10.681,52.429
-1.034,0.876,0.857,-63.721,11.597,74.768
-1.105,-0.919,3.378,-62.927,-0.183,13.123
0.349,1.68,-0.598,-40.405,-24.658,-47.791
0.794,2.522,-1.345,-8.789,-41.382,-19.287
1.541,1.177,-2.967,33.447,-61.157,12.817
4.077,0.23,-3.091,54.443,-62.561,-4.15
5.235,1.426,-3.723,51.331,-42.603,-42.786
3.689,1.976,-3.766,27.283,-13.916,-52.673
3.909,1.675,-2.613,0.305,12.939,-37.476
3.646,1.254,-2.909,-26.611,40.1,-4.456
1.292,-2.038,-1.665,-32.104,49.561,37.537
0.22,-3.498,-1.675,-7.996,37.415,46.265
-0.325,-3.622,-1.421,33.752,14.099,38.513
-0.522,-2.239,-1.115,64.453,-7.507,72.632
0.053,-0.153,-0.306,70.679,-24.902,86.304
0.507,1.282,0.215,51.697,-28.625,62.073
0.713,1.771,0.287,17.09,-20.081,15.747
1.751,2.464,0.861,-24.109,-2.38,-55.176
0.024,-0.105,-0.828,-49.072,4.028,-102.783
-1.278,-1.756,1.081,-45.959,-1.343,-36.011
-2.541,-1.737,-0.569,-20.874,-16.968,19.775
-2.278,0.402,-0.297,9.094,-39.246,-0.977
-1.833,1.043,-0.837,25.879,-56.213,-24.78
0.507,2.359,-0.66,22.095,-55.664,-25.269
2.656,3.34,-2.359,-7.935,-36.926,-32.166
1.981,3.756,-3.775,-37.781,-20.02,-20.813
0.077,-0.34,-3.283,-36.316,-21.362,-6.348
-1.196,-2.933,-2.216,25.879,-50.72,70.068
-0.799,-0.718,-2.254,73.059,-82.52,60.242
0.565,1.182,-2.546,81.543,-97.656,-11.108
2.431,2.364,-1.727,56.03,-85.022,-44.067
2.483,2.929,-1.617,8.423,-54.749,-43.701
3.522,3.766,-3.933,-48.95,-22.156,-45.959
1.407,0.077,-1.383,-75.317,-6.714,-44.25
-0.603,-3.819,-1.325,-29.968,-9.338,136.719
-2.177,-2.354,0.196,40.527,-36.865,177.002
-0.804,0.981,-1.072,83.435,-73.669,57.068
0.388,2.598,-1.833,77.393,-71.289,36.56
1.34,2.149,-1.019,41.748,-42.908,21.606
1.378,5.264,-4.364,-17.334,7.507,64.392
2.33,4.177,-5.163,-65.308,51.819,72.51
-4.46,-1.053,-3.168,-42.847,56.641,174.927
-6.814,-2.479,-2.019,39.185,13.123,226.502
-5.273,0.569,-3.163,77.454,-29.419,-1.526
-1.139,0.325,-4.024,80.444,-11.658,-69.641
-0.172,3.244,-5.383,53.589,34.058,32.288
1.397,3.914,-5.871,5.249,87.463,45.471
-3.374,-2.728,-3.354,-8.362,85.815,-12.695
-11.508,-3.809,-0.024,5.493,16.724,74.036
-14.279,2.531,-1.833,-28.625,-123.779,-22.766
-8.345,4.972,-2.771,-85.693,-227.905,-199.402
-4.029,3.608,-4.551,-119.08,-303.101,-160.95
-5.728,4.235,-4.005,-155.945,-365.479,-106.69
-8.077,7.785,-3.019,-203.552,-424.133,-89.905
-5.402,9.824,-3.015,-268.921,-478.272,-90.881
-6.776,14.265,1.799,-337.341,-531.189,-58.899
-20.916,46.052,27.132,-530.396,-589.966,263.55
-20.136,83.171,36.276,-929.81,-488.403,-363.342
134.573,39.937,17.571,-1119.812,442.505,507.996
-155.757,20.236,-40.396,-429.443,1999.939,688.294
41.215,-29.132,-18.49,706.97,1962.585,992.92
30.4,40.057,21.246,158.386,1655.396,-240.906
-14.667,-40.894,40.08,-323.425,1133.911,-31.677
-6.757,-49.072,21.246,-129.944,517.883,633.362
-8.594,-22.926,21.366,-154.602,12.39,229.126
3.383,-20.825,17.365,-121.948,-112.0,34.058
-0.282,-10.838,14.877,-51.575,-87.585,-96.558
-2.211,-7.637,10.317,-47.241,-52.917,-47.791
0.292,-7.589,7.082,-66.956,-15.015,-31.25
-2.976,-1.948,6.388,-110.23,8.24,-162.781
-1.914,4.819,3.316,-160.156,14.282,-142.944
1.01,14.667,-2.244,-252.197,25.146,-77.942
-0.924,13.13,-4.283,-322.876,-3.174,-172.607
0.364,5.331,-2.632,-316.101,-60.547,-207.947
2.12,4.709,-2.905,-250.732,-112.793,-176.025
1.388,7.001,-1.335,-195.313,-131.287,-147.095
-1.928,6.747,-0.34,-154.236,-152.527,-210.51
-1.976,6.12,0.933,-127.258,-171.509,-180.908
-1.297,8.943,1.957,-129.883,-177.002,-132.08
-1.369,11.446,-4.359,-163.757,-180.786,-173.157
0.483,9.077,-5.589,-189.88,-180.054,-205.75
1.751,3.541,-3.728,-185.425,-174.072,-154.846
-0.033,2.718,-2.661,-156.799,-162.109,-49.5
-2.699,3.283,-2.316,-131.104,-157.227,-29.053
-3.689,3.905,-2.699,-103.21,-160.217,-63.477
-4.206,3.589,-3.297,-84.717,-164.49,-85.388
-1.689,3.259,-3.828,-70.984,-160.767,-153.992
0.148,1.302,-4.268,-53.162,-142.09,-200.317
0.818,0.55,-3.0,-30.823,-118.469,-195.618
1.928,-1.014,-2.56,-3.662,-77.82,-164.429
2.034,-1.148,-1.359,12.451,-43.884,-102.722
1.407,-1.498,0.0,20.081,-8.911,-6.287
1.316,0.392,1.546,10.071,19.653,86.67
2.527,4.972,1.555,-20.264,44.861,74.829
3.756,6.905,1.311,-69.336,73.792,12.512
-1.593,4.809,1.632,-105.164,77.271,-18.005
-4.139,-1.058,0.44,-89.905,48.645,14.526
-0.426,-2.306,-0.713,-48.706,21.484,-93.262
2.283,-1.895,0.062,-7.324,15.076,-118.347
1.694,-0.833,-0.565,30.945,23.01,0.427
-0.306,-1.096,-0.656,48.706,24.231,76.172
-1.048,-0.732,-0.646,52.795,16.785,76.477
-0.541,-0.383,-0.895,42.053,11.414,25.635
-0.713,-0.34,-0.397,27.832,8.484,0.61
-1.407,-1.163,0.048,12.512,1.892,14.709
-1.34,-1.785,0.316,0.916,-5.127,18.372
-1.751,-2.273,0.574,-11.841,-14.709,3.662
-2.015,-1.325,0.469,-27.161,-23.987,-11.78
-1.828,-1.23,0.632,-40.527,-31.128,-21.057
-1.646,-2.359,1.967,-48.706,-40.344,-37.781
-1.718,-2.603,2.795,-48.462,-49.316,-18.127
-1.416,-0.971,3.201,-50.842,-58.533,27.832
0.426,1.163,2.488,-68.97,-57.617,45.837
0.78,1.742,1.613,-90.942,-50.659,57.312
0.201,1.206,1.928,-110.291,-42.358,61.584
1.948,2.417,0.306,-127.502,-30.334,57.922
3.584,3.058,-1.206,-148.682,-7.568,45.715
4.35,1.345,-1.555,-159.485,14.648,36.255
1.263,0.124,-0.871,-156.006,23.926,73.669
1.019,-0.943,-0.498,-143.494,26.611,93.994
1.641,-0.144,-1.904,-137.573,25.391,47.852
1.44,0.244,-1.689,-130.615,19.409,44.922
0.033,-0.632,-0.857,-116.028,6.47,72.083
-0.991,1.316,-1.857,-110.718,-8.301,60.242
-0.148,0.464,-2.775,-110.474,-22.827,3.723
-0.239,-0.794,-1.407,-100.952,-33.691,-15.381
-0.589,-2.359,-0.66,-77.759,-43.884,10.071
-0.79,-1.321,-1.22,-57.129,-48.462,7.629
1.818,-1.22,-1.345,-43.701,-42.175,-30.029
1.579,-1.459,-0.378,-21.362,-27.283,-12.329
0.124,-1.847,-0.751,-1.343,-18.921,22.461
3.326,-0.555,-1.062,12.634,-3.174,-10.986
1.402,-2.067,-1.139,30.334,11.475,33.63
-1.957,-0.541,-1.756,44.373,7.263,66.528
-0.507,2.45,-2.541,44.006,1.587,-13.55
-0.349,1.78,-1.847,48.462,3.113,-48.523
-0.187,0.938,-1.254,66.589,4.395,-25.269
-0.244,-0.431,-1.029,92.163,3.235,-39.856
-0.153,0.211,-1.852,109.985,4.395,-47.241
0.933,-0.148,-2.579,126.709,12.268,-48.889
0.775,1.302,-1.488,137.573,21.484,-10.986
-1.517,0.589,-1.378,151.245,20.142,3.418
-1.838,1.617,-0.603,160.156,12.39,-31.25
-0.885,2.038,0.0,162.598,13.184,-49.805
-0.459,2.058,-0.01,160.156,25.085,-43.701
0.373,4.149,0.981,148.926,38.818,-27.954
1.416,3.905,2.225,132.263,57.739,-8.24
-0.033,0.78,2.354,125.916,72.205,-2.808
0.622,2.775,2.852,113.098,85.022,-18.372
0.541,-0.144,5.431,105.225,103.577,16.846
-0.273,2.34,5.077,98.022,108.704,100.83
-0.871,3.579,3.086,83.008,109.558,171.265
-1.005,1.546,3.019,72.693,102.417,147.156
-3.498,-1.325,3.57,77.148,82.825,95.215
-5.24,-3.259,1.675,90.515,47.241,37.17
-6.092,-2.68,3.278,110.474,8.24,62.988
-4.651,-3.058,0.689,116.211,-29.541,32.898
-6.259,-0.613,0.833,98.084,-55.664,-27.344
-3.244,-0.895,-0.493,75.134,-52.368,-103.394
0.23,-2.775,-2.594,50.964,-31.982,-160.095
2.531,0.555,-3.464,21.301,-5.676,-141.419
-0.321,-0.522,-0.885,-5.981,14.465,-68.115
-1.187,-1.402,-0.45,-18.555,12.634,11.047
-2.421,-1.177,-0.67,-22.217,1.282,36.499
-3.374,-0.919,1.254,-14.038,-21.545,-3.723
-2.129,-0.292,1.555,2.563,-42.542,-31.677
-2.431,0.79,1.067,27.832,-58.838,-13.672
1.11,0.861,0.742,45.288,-53.65,-17.7
1.464,2.22,-0.593,39.673,-41.687,0.854
0.555,4.24,-3.077,15.808,-25.452,54.688
6.551,4.197,-3.426,-15.076,1.099,10.254
4.8,4.436,-4.871,-46.448,19.348,7.141
3.852,-1.11,-0.699,-49.561,37.781,73.608
1.804,2.574,-3.484,-53.406,46.326,98.755
1.861,-1.579,-3.469,-35.95,41.016,48.035
0.321,-3.685,-1.761,1.221,21.851,13.062
-0.196,-2.359,-2.823,48.462,-2.441,49.927
-0.014,-0.909,-2.12,73.303,-20.752,46.631
0.924,-0.177,-1.493,74.097,-27.283,10.315
1.603,0.871,-0.306,56.641,-21.24,-0.366
1.608,0.967,-0.148,29.602,-5.249,2.502
1.665,0.703,-0.502,-2.136,18.25,19.775
1.876,-0.172,-0.412,-27.466,38.452,4.578
1.373,-3.024,0.794,-28.381,50.659,8.057
-2.216,-4.575,-0.392,1.038,38.879,59.387
-3.206,-3.072,1.469,33.508,5.92,53.589
-3.546,-2.196,2.187,66.223,-42.969,-45.349
-0.947,-0.871,2.862,75.134,-68.97,-63.477
-0.641,1.78,2.192,55.542,-74.341,25.818
1.971,5.891,-2.383,-6.165,-63.11,14.343
4.307,7.211,-2.149,-72.449,-35.828,-87.341
1.23,3.393,-2.862,-122.681,-20.996,-105.103
0.646,0.541,-2.129,-99.976,-38.452,-83.008
-1.005,-2.397,-3.211,-32.837,-67.505,-25.024
-0.273,-1.531,-2.996,39.978,-101.196,18.677
0.45,-0.139,-3.881,65.796,-118.958,18.433
3.646,1.498,-4.13,54.443,-113.342,-17.578
3.177,1.287,-4.307,26.123,-87.83,-10.254
2.077,1.675,-2.933,-1.465,-66.406,2.075
0.23,0.943,-3.316,-17.212,-56.213,2.991
-1.431,-1.526,-0.718,5.31,-62.317,17.334
-1.794,-0.947,-1.627,52.734,-83.313,4.7
-0.057,-0.45,-1.383,80.078,-90.027,12.634
0.258,1.153,-2.512,72.754,-80.017,25.269
1.369,1.967,-1.799,32.288,-50.659,-12.268
1.866,2.818,-1.488,-10.681,-19.348,-29.419
-0.158,3.512,-2.335,-56.946,7.568,-17.09
-2.206,-0.517,-1.034,-53.711,7.202,28.87
-2.723,-3.364,0.177,-1.404,-12.146,30.212
-2.713,-1.727,-0.124,68.054,-36.316,65.186
-1.215,0.914,-0.947,85.449,-36.377,46.57
0.766,1.144,-1.866,59.937,-6.348,31.921
2.761,3.374,-2.876,6.897,48.889,76.843
1.933,3.393,-3.823,-42.725,94.238,62.927
-2.857,-0.053,-2.871,-55.359,105.774,55.115
-3.723,-3.283,-1.761,-5.432,85.938,139.587
-3.598,-1.522,-2.292,68.298,43.213,149.292
-1.684,0.613,-2.775,95.886,24.902,64.087
-2.129,1.196,-3.168,89.661,38.391,63.049
-0.78,3.029,-4.656,50.842,71.045,46.57
-0.364,1.531,-5.063,0.366,91.064,-41.138
-7.886,0.804,-0.622,-37.781,54.199,14.709
-13.542,2.335,-1.345,-87.097,-62.317,-55.664
-9.398,2.79,-2.713,-135.498,-174.133,-247.253
-3.082,3.244,-5.422,-163.452,-270.813,-208.679
-4.972,5.938,-4.158,-195.19,-347.351,-161.743
-3.986,9.709,-5.938,-247.681,-440.064,-182.251
-3.799,9.795,-5.077,-295.044,-524.414,-146.79
-9.723,16.346,3.919,-354.004,-602.234,-41.992
-16.916,51.608,30.682,-548.584,-652.832,120.789
31.3,58.594,34.18,-808.655,-413.818,-528.381
134.477,34.42,10.044,-899.292,1131.409,853.821
149.804,10.374,-58.192,-62.561,1999.939,1011.78
66.676,31.979,-20.308,696.716,1836.67,950.928
0.254,30.73,32.654,83.13,1536.133,-134.644
8.972,-58.518,33.927,-344.971,696.411,67.566
19.188,-46.488,19.945,-40.955,170.044,512.817
2.546,-10.432,19.954,-62.195,-191.162,29.114
13.193,-8.149,12.91,-125.61,-247.376,-108.704
14.188,-12.968,10.427,-144.531,-92.102,106.69
4.823,-4.603,8.12,-183.655,25.269,85.815
-1.369,4.244,5.402,-250.855,72.449,-20.813
-2.378,6.996,2.35,-312.561,49.5,-60.547
-3.283,4.78,0.876,-327.393,13.428,-60.913
-1.928,7.321,0.057,-314.331,-34.241,-125.305
-2.149,7.297,0.45,-289.063,-71.655,-152.71
-4.187,4.546,1.364,-238.709,-123.23,-176.453
-4.23,4.957,2.474,-187.134,-166.626,-158.081
-3.608,8.876,2.115,-166.626,-184.021,-125.366
-2.005,7.766,2.249,-170.044,-179.138,-100.952
1.699,7.929,0.809,-179.016,-153.076,-88.44
0.66,11.733,-1.426,-206.543,-100.037,56.335
-1.823,12.327,-1.842,-239.624,-66.284,34.668
-7.106,8.388,-2.426,-248.352,-78.979,-64.331
-5.111,5.905,-4.024,-213.257,-129.211,-249.878
-1.038,5.383,-5.316,-156.433,-156.25,-323.12
-0.153,3.919,-4.45,-87.585,-147.705,-240.479
-0.947,2.929,-2.818,-37.109,-118.835,-135.803
-1.201,3.78,-1.904,-16.113,-91.431,-100.769
-0.598,4.345,-1.325,-11.658,-53.223,-94.055
1.129,4.914,1.144,-19.165,-15.93,-91.003
2.067,4.804,2.402,-28.564,25.696,-81.543
2.196,3.153,1.881,-33.081,59.448,-96.497
1.177,1.263,0.56,-23.865,78.491,-64.88
0.804,-0.924,0.426,5.981,86.06,-48.035
0.77,-1.479,0.9,40.833,84.167,-11.353
0.66,-1.613,1.211,80.872,75.439,37.781
-1.378,-1.684,-0.215,108.154,57.19,67.444
-1.359,-0.799,0.297,115.54,38.513,68.665
0.316,-1.689,-0.44,104.614,27.832,-36.194
-0.55,-2.177,0.072,99.976,26.123,-28.015
-0.713,-3.283,0.464,98.816,21.667,27.1
0.067,-4.761,0.933,95.581,19.836,51.086
-0.359,-3.134,0.297,83.618,23.071,67.444
-0.464,-1.804,-0.043,52.979,27.161,26.428
-0.995,-1.067,-0.072,18.066,29.48,6.409
-0.077,-0.522,-0.067,-21.667,32.043,24.78
-0.971,-0.522,0.005,-57.861,24.414,23.743
-2.847,-1.933,0.713,-75.195,3.601,14.526
-2.608,-1.79,0.187,-86.365,-26.306,-5.432
-1.005,-1.747,1.134,-93.872,-45.837,-32.41
-0.378,-0.464,1.833,-105.103,-57.861,-38.269
0.263,1.732,1.144,-128.418,-58.167,-29.236
2.283,2.172,0.641,-153.442,-48.889,-39.917
0.129,1.613,2.149,-171.326,-44.006,-39.246
5.369,5.398,0.646,-183.838,-30.273,-10.559
0.632,0.823,-0.258,-176.636,-15.381,37.659
-0.402,-1.464,-0.072,-143.799,-14.404,78.186
2.838,-1.689,-0.651,-115.295,-4.089,40.161
2.632,-0.751,-0.383,-91.248,14.16,56.885
0.799,-0.167,0.579,-78.43,20.63,76.965
-0.234,-1.01,1.948,-66.162,9.094,56.213
-0.455,-1.139,2.211,-57.19,-8.118,47.791
-0.392,-0.392,2.263,-59.326,-22.156,41.443
-0.258,-0.502,1.675,-66.223,-34.851,17.151
-0.258,-0.062,0.976,-72.388,-43.091,-9.338
1.187,0.014,-0.799,-77.454,-45.654,-50.11
1.445,-0.45,-1.608,-70.679,-39.001,-16.296
0.569,-0.947,-2.192,-54.993,-34.241,0.488
0.708,0.033,-2.082,-33.508,-27.588,-35.767
0.703,-0.258,-2.417,-8.789,-17.822,-52.979
1.273,-0.904,-1.187,27.893,-1.953,-46.814
0.976,-2.101,-0.957,68.97,13.733,5.737
-2.22,-1.986,0.89,96.375,23.621,15.564
1.278,-5.221,0.22,113.281,39.063,-49.683
2.378,3.732,-4.608,112.0,70.557,-46.509
-0.043,2.029,-1.392,101.807,89.661,2.625
-0.345,2.287,-1.622,87.158,96.13,18.921
-0.818,2.397,-1.416,81.97,90.515,29.48
-1.263,0.679,-0.861,99.67,71.045,17.273
-1.268,1.029,-1.105,131.653,49.683,60.547
-1.412,2.34,0.01,166.504,21.912,107.239
-0.579,3.077,1.928,178.467,0.671,68.97
-0.177,2.962,2.761,173.218,-1.526,25.208
-0.498,2.517,2.656,157.654,7.813,33.936
-1.0,1.373,2.134,140.503,18.311,68.787
0.756,-0.651,3.048,117.676,32.288,67.81
0.813,-0.837,2.311,91.797,48.035,-3.845
-0.756,-0.23,0.502,57.739,58.594,-26.978
-3.254,-0.689,2.139,24.841,53.528,32.898
-4.374,-2.287,2.062,9.155,30.945,78.979
-2.751,-2.646,0.421,-1.709,4.028,23.438
-1.081,-2.603,-0.818,-8.85,-14.282,-52.979
-1.369,-3.618,-1.029,-6.653,-24.963,-68.787
-0.282,-3.216,-0.957,-1.648,-31.372,-65.552
0.287,-1.904,-0.818,-4.272,-30.151,-48.035
-0.01,-0.488,-1.632,-15.32,-23.315,-9.094
0.182,-1.096,-0.761,-22.522,-16.541,-2.258
-1.665,0.522,0.493,-20.996,-17.883,-3.235
-1.713,0.014,0.651,-9.949,-25.879,-38.635
-0.263,1.201,0.507,-0.61,-28.32,-42.786
0.723,3.163,-0.211,6.958,-25.146,5.859
0.311,3.508,0.072,13.062,-26.245,31.006
1.971,5.12,0.445,10.315,-24.17,2.502
1.799,5.541,-2.665,7.202,-16.663,20.874
1.397,3.517,-2.512,18.188,-15.747,11.169
2.546,1.263,-2.565,47.729,-14.16,-51.819
3.598,0.483,-3.369,77.576,0.0,-36.987
4.096,0.234,-3.646,89.233,17.639,29.053
1.732,0.397,-3.598,81.848,32.288,75.867
0.723,-0.1,-2.708,62.439,42.542,80.383
2.67,-0.813,-2.397,35.767,61.768,66.162
1.507,-1.086,-1.067,8.728,74.036,45.654
-1.909,-0.593,-1.503,-6.042,70.068,49.744
-0.799,-3.732,-0.081,2.991,48.706,6.409
-1.632,-3.46,-0.005,26.917,25.391,32.593
-1.584,-1.651,0.1,40.466,-0.488,62.5
-0.105,-0.182,0.536,26.489,-13.428,13.794
1.67,0.742,0.866,3.479,-6.592,-23.499
1.517,1.177,-1.321,-26.123,10.376,-45.227
0.412,-0.029,-0.34,-35.522,17.7,-21.118
-0.325,-0.115,-0.34,-20.264,12.268,25.085
-0.569,0.593,-1.038,0.671,-1.465,1.831
-0.364,2.134,-1.302,12.146,-10.01,16.479
0.163,3.699,-1.742,8.972,-13.977,52.124
-0.144,3.201,-2.445,-5.249,-15.259,12.573
0.373,1.144,-2.732,-17.212,-16.113,-54.688
1.254,-0.469,-2.139,-12.634,-15.259,-33.997
1.373,-0.785,-1.512,-0.61,-17.761,5.92
1.268,0.22,-1.053,12.817,-27.71,14.587
1.852,0.44,-0.565,21.606,-38.94,27.344
0.474,1.239,0.364,25.757,-58.716,55.359
-0.354,1.431,0.766,19.836,-82.825,10.925
-0.919,1.426,0.354,9.644,-100.22,-75.928
1.11,0.431,-0.679,-1.587,-102.539,-107.483
1.78,1.201,-0.842,-12.634,-87.524,-23.254
1.584,1.407,-2.546,-30.151,-55.359,70.007
1.546,0.215,-2.426,-23.865,-21.179,88.928
-1.273,-0.794,-1.938,18.188,-10.437,164.368
-3.651,1.125,-1.699,63.66,-23.621,211.304
-4.24,3.163,-3.46,67.322,-38.025,159.729
-1.225,2.187,-2.393,42.847,-27.771,46.997
0.77,3.814,-5.005,7.935,17.029,26.855
1.273,2.407,-4.962,-16.907,63.354,50.476
-2.594,-0.67,-4.503,-17.456,87.219,27.71
-6.005,-1.737,-2.785,7.813,67.932,44.739
-6.886,0.412,-3.948,24.109,11.169,5.005
-6.202,1.263,-3.407,6.714,-53.101,-45.227
-7.441,1.651,-2.708,-28.809,-111.633,-74.768
-7.963,3.685,-3.196,-91.553,-188.721,-136.231
-8.991,5.35,-4.01,-149.902,-261.169,-162.415
-6.814,5.891,-3.752,-201.111,-342.712,-227.722
-4.632,7.905,-4.087,-233.093,-415.1,-219.36
-5.723,9.178,-1.196,-260.132,-478.943,-200.623
-5.431,12.006,3.689,-291.626,-571.777,-222.229
-15.054,30.041,23.543,-355.713,-647.949,36.499
-22.696,63.571,48.12,-660.461,-571.655,110.718
132.109,24.246,24.624,-898.132,607.91,462.402
153.01,19.38,-45.158,-398.926,1999.939,569.641
-9.776,43.669,-13.805,548.462,1999.939,1710.571
26.189,29.3,2.34,555.908,1477.051,-83.496
-18.557,-26.711,36.511,170.532,854.309,199.646
-5.216,-31.462,29.055,77.698,165.71,260.559
5.412,-13.858,21.983,36.072,-65.063,-22.522
9.819,-19.758,19.614,125.855,-129.211,-316.711
24.505,-23.036,12.169,217.163,-42.969,8.728
7.867,-7.479,10.618,118.408,25.208,36.072
-1.498,-6.546,10.058,-52.734,-12.268,-13.733
5.077,-7.187,3.809,-143.189,-50.842,19.959
2.33,-2.306,0.512,-216.37,-54.688,11.169
-1.498,0.163,-0.359,-246.399,-64.819,-4.333
-3.555,0.962,-1.239,-251.892,-94.849,-40.466
-1.211,0.938,-3.35,-223.694,-107.422,-36.499
-3.082,2.306,-4.436,-188.355,-105.713,-18.494
-4.082,4.216,-5.091,-142.944,-102.6,-25.574
-3.953,2.976,-4.589,-94.116,-101.624,-97.107
-2.56,1.378,-3.369,-22.034,-92.896,-81.482
-2.244,-2.019,-2.991,42.908,-70.74,-5.554
-5.546,-0.134,-4.034,60.242,-58.716,49.377
-4.776,7.656,-5.0,18.127,-56.58,45.959
-0.517,12.475,-9.02,-56.824,-43.579,-56.458
6.575,7.757,-11.36,-125.794,-21.423,-184.082
-9.298,-4.144,2.043,-113.281,-66.284,-204.041
-7.202,-3.053,-3.302,-66.65,-136.658,-514.71
2.713,0.79,-4.173,4.395,-150.94,-730.53
7.206,0.531,-2.153,84.473,-93.445,-317.749
1.785,0.182,-1.718,127.93,-44.983,45.837
2.991,4.01,-1.407,109.985,-1.892,-112.427
1.201,0.847,-1.579,91.98,28.137,-184.204
0.392,-0.962,-1.794,90.332,39.49,12.024
-1.431,0.077,-1.469,78.186,19.592,42.786
-0.531,-0.249,-1.459,56.946,-9.46,-52.551
1.192,-1.388,-1.316,55.115,-18.921,-12.695
1.215,-1.086,-1.129,56.03,-20.752,14.038
0.292,-0.335,0.167,49.683,-21.545,2.258
-0.191,0.062,0.713,42.542,-23.682,-20.874
-0.957,0.024,1.302,34.485,-32.166,18.982
-2.359,-0.368,1.919,31.799,-54.81,96.252
-1.89,-1.914,2.278,28.931,-80.383,120.483
2.153,-0.22,2.249,15.564,-102.966,128.784
5.35,0.115,1.924,0.488,-105.591,247.925
2.263,-3.546,5.13,-27.283,-101.135,540.71
-2.675,3.115,3.101,-90.637,-70.313,727.844
-0.823,2.881,2.479,-153.503,-7.751,733.948
-7.517,8.728,6.106,-180.603,62.256,526.245
-1.718,7.843,-3.441,-208.923,97.778,247.864
-5.948,2.029,1.024,-215.21,63.416,-97.046
-5.996,-0.679,-2.038,-140.991,-5.615,-8.301
-1.699,-1.01,-1.349,-73.242,-38.696,61.462
-2.512,1.11,-1.412,-33.325,-58.167,75.623
-2.302,3.187,-1.66,-33.325,-61.157,60.059
-0.675,5.13,-2.12,-59.937,-51.88,-5.31
1.689,5.302,-2.598,-98.206,-31.494,-82.764
-0.44,4.756,-1.948,-127.502,-18.494,-104.004
-1.933,3.397,-0.44,-149.78,-19.409,-86.121
-2.507,0.632,0.909,-147.522,-31.372,-95.703
-1.187,1.67,-0.56,-139.526,-43.457,-83.984
0.01,-0.077,0.392,-133.179,-45.41,-76.233
0.742,-1.321,0.775,-127.808,-42.847,-66.345
1.928,1.101,1.436,-129.578,-28.748,8.972
3.23,2.354,0.89,-142.761,-6.592,47.424
2.421,0.0,0.593,-155.64,13.245,0.0
2.656,-1.67,-0.402,-155.273,24.353,-30.396
4.024,-2.852,-1.005,-143.921,37.048,19.714
4.12,-2.436,-0.895,-127.136,53.162,58.044
1.828,-1.249,-0.536,-115.173,54.138,54.688
-0.019,0.057,0.014,-104.004,41.26,63.904
-0.861,-1.258,0.474,-90.393,19.897,43.274
-0.938,-0.622,0.153,-81.299,0.977,16.602
0.0,0.22,-2.12,-80.261,-12.939,-19.959
1.311,-1.239,-2.316,-74.585,-15.93,-48.157
0.091,-1.919,-2.302,-51.147,-16.846,-14.038
-0.345,-0.813,-2.531,-23.315,-17.883,20.63
0.943,-0.775,-2.46,-1.404,-15.686,-23.01
-0.431,-0.249,-1.986,26.917,-16.296,-34.241
-0.325,-0.349,-1.809,50.659,-19.165,-29.907
-1.077,-0.517,-1.785,75.989,-23.376,-34.485
-1.235,-0.531,-1.613,96.313,-21.301,-53.711
0.852,-2.283,-1.436,109.192,-6.287,-101.685
1.617,1.34,-2.57,108.582,29.541,-110.84
0.761,1.479,-1.67,98.755,55.298,-58.716
0.656,2.78,-0.861,84.595,75.684,17.273
-2.555,1.459,0.1,94.238,67.505,22.888
-1.962,1.474,-0.766,108.582,53.833,-82.459
-2.627,1.196,-1.239,146.668,41.321,-88.135
-0.943,1.019,0.546,181.702,36.316,-55.054
0.407,1.9,2.244,198.853,48.706,-95.764
0.311,4.292,1.962,187.622,77.087,-120.911
-2.196,4.996,2.388,157.593,102.051,-85.51
-0.239,5.929,4.881,122.131,111.755,-37.598
-1.436,1.838,3.579,99.365,118.591,-2.747
0.282,-0.321,5.364,84.106,118.713,18.25
-0.407,-4.374,3.551,77.759,119.69,-4.517
-0.933,-1.881,5.541,62.805,120.178,-48.34
1.196,-0.991,-3.101,37.476,122.437,-68.848
-2.483,-7.57,3.976,46.753,110.046,37.842
-0.316,-2.436,0.029,55.115,94.666,159.302
-1.823,0.043,-0.766,35.522,68.054,191.406
0.139,-1.78,-1.483,10.559,48.157,174.011
-0.096,-3.326,-0.656,-3.906,34.485,197.327
-1.072,-3.488,0.526,-2.319,14.404,178.345
-2.034,-1.211,-0.392,-6.47,-11.292,74.768
-2.005,0.096,1.771,-7.324,-35.828,16.052
-1.933,-0.541,0.191,-7.629,-54.26,-63.782
-1.177,0.124,0.077,-3.479,-70.129,-121.765
-0.062,1.187,-0.258,1.099,-72.571,-71.777
2.345,2.723,-0.402,-7.507,-64.453,-28.076
2.699,4.417,-0.991,-23.682,-50.354,26.184
0.632,4.867,-2.455,-31.799,-43.518,54.077
0.713,1.598,-1.89,-13.123,-47.119,-11.292
2.373,-0.287,-2.55,23.254,-48.767,-50.293
3.9,0.077,-3.383,55.908,-37.964,-5.432
3.814,0.11,-3.378,62.073,-22.522,52.429
1.215,-0.182,-3.192,49.316,-13.0,45.959
2.158,-0.244,-1.799,22.644,0.488,0.488
5.134,-0.033,-2.527,-1.709,23.621,25.94
0.914,1.464,-3.708,-34.363,47.302,82.642
0.541,-1.833,-2.302,-49.866,52.246,27.893
-0.694,-2.469,-0.933,-38.879,41.138,-25.269
-0.746,-2.728,-0.928,-1.038,22.766,20.386
0.263,-1.651,-0.517,28.32,9.644,39.49
0.479,-0.66,-0.081,46.753,-1.343,79.956
-0.005,0.148,0.828,42.48,-8.85,94.849
-0.072,0.584,1.249,21.606,-11.047,34.241
0.746,0.225,1.632,-8.118,-5.859,-50.964
1.306,0.191,2.809,-35.278,2.869,-62.927
0.636,1.383,1.598,-70.74,10.742,-19.836
0.325,1.172,0.148,-99.915,15.808,0.977
-0.598,-1.349,-0.325,-96.008,6.47,-31.982
-0.641,-2.206,-1.761,-44.006,-16.724,-12.207
-1.345,-1.201,-2.259,19.592,-41.321,77.393
0.153,1.574,-2.574,56.946,-68.359,69.885
0.909,4.584,-2.952,41.565,-73.242,55.725
0.574,7.063,-4.646,-1.221,-60.913,11.108
1.842,6.35,-7.283,-60.059,-38.879,-91.98
-0.431,0.761,-4.723,-70.557,-34.973,-114.319
-2.55,-2.129,-3.153,-23.499,-53.589,5.005
-1.747,-0.871,-2.598,28.015,-76.843,-19.836
0.799,1.378,-2.383,47.729,-76.965,-49.744
1.971,2.383,-1.067,40.771,-52.063,-14.099
4.125,2.976,-0.627,13.977,-20.447,-15.503
4.689,2.665,-1.469,-25.635,20.691,-21.301
1.215,-0.464,-0.368,-30.212,33.386,44.067
-2.192,-3.976,-0.354,23.376,9.949,161.072
-2.9,-1.785,-0.885,85.754,-39.185,124.939
-0.249,0.651,-1.493,98.511,-58.105,56.763
0.689,1.861,-2.909,74.158,-36.133,75.623
1.742,5.235,-3.967,25.635,12.024,148.926
4.374,4.886,-6.245,-20.813,62.805,123.047
-4.819,0.603,-4.417,-33.936,83.679,78.003
-6.211,-1.392,-3.359,-2.319,64.148,144.592
-5.656,0.45,-3.728,27.222,19.287,78.918
-5.345,2.024,-4.024,15.686,-15.442,-51.88
-5.661,3.637,-5.192,-15.747,-36.011,-101.807
-5.101,0.56,-4.311,-60.059,-77.393,-138.916
-8.733,-0.34,-1.455,-83.252,-139.587,-106.567
-10.125,3.89,-2.019,-126.892,-231.14,-127.808
-7.795,5.838,-2.967,-180.054,-308.899,-196.045
-5.029,5.9,-3.072,-212.341,-360.352,-194.397
-3.981,8.063,-2.091,-249.878,-408.142,-167.297
-3.302,8.427,0.67,-279.541,-450.806,-218.384
-8.589,13.518,13.298,-298.401,-515.686,-130.31
-21.16,32.276,35.86,-394.531,-564.453,168.396
50.488,36.286,50.091,-624.878,-193.604,-384.644
120.05,37.305,8.829,-737.427,1197.266,783.569
128.343,15.427,-37.085,-228.76,1999.939,693.176
35.228,71.94,-5.623,346.314,1896.912,1255.31
4.082,21.117,25.553,545.227,1548.889,344.177
-7.144,-27.653,38.894,415.039,888.855,-7.813
-2.383,-21.533,25.218,485.962,299.439,499.268
-7.494,12.666,26.184,343.872,-91.553,228.943
2.79,7.795,19.284,178.406,-194.397,-58.533
9.283,-2.426,18.59,69.946,-142.273,-72.571
9.977,-1.574,18.026,-28.32,-41.931,20.081
4.192,1.373,11.992,-170.898,43.335,-1.038
0.823,0.316,7.431,-257.202,88.074,71.045
-1.072,-0.005,5.12,-299.683,119.629,93.75
-2.914,0.412,3.756,-312.622,126.892,22.217
-5.627,1.053,2.077,-318.42,114.868,9.521
-7.25,3.464,1.402,-335.266,86.731,-4.639
-6.522,6.216,0.737,-365.723,59.814,-84.961
-4.555,8.848,-1.584,-402.527,8.789,-189.758
-0.33,11.259,-2.359,-409.973,-27.222,-137.817
2.594,12.963,-3.072,-390.686,-24.658,-74.219
-1.684,10.953,-1.56,-343.079,-31.555,-91.309
-2.809,10.872,0.325,-293.518,-66.162,-166.687
1.177,11.795,0.55,-250.122,-107.361,-247.742
1.086,10.408,-1.215,-215.576,-124.268,-161.926
-1.938,8.585,-3.201,-197.571,-137.451,-123.474
-0.187,10.393,-4.9,-191.895,-148.682,-160.034
3.024,10.245,-6.484,-191.345,-144.531,-210.327
0.522,6.106,-5.8,-169.678,-139.343,-187.317
-0.617,4.527,-5.465,-129.395,-134.033,-94.604
-1.971,3.838,-5.297,-94.543,-122.62,-41.077
-3.201,3.479,-4.862,-52.856,-112.671,-85.205
-2.924,4.154,-3.244,-22.156,-105.774,-82.459
-2.771,5.417,-1.0,-1.526,-97.412,-45.105
-3.321,5.876,-0.177,-2.869,-93.506,-65.735
-1.445,4.823,0.105,-12.695,-86.792,-143.005
-0.555,3.254,-0.455,-21.057,-65.857,-134.033
1.928,-1.713,0.029,-24.78,-45.898,-128.052
3.747,-3.192,2.005,-23.987,-11.047,-90.82
1.957,-6.01,5.149,-29.114,11.475,-158.752
7.833,6.867,-3.642,-66.284,55.847,-107.239
-1.148,8.565,-5.096,-117.31,76.172,75.5
-6.087,-4.426,0.33,-130.493,44.922,-46.753
-6.101,-7.517,2.235,-79.468,-14.771,-231.262
1.23,-4.407,-0.498,6.104,-14.343,-237.427
4.364,-2.617,-1.579,58.105,18.066,-159.363
1.641,-3.694,-1.22,98.816,42.847,67.505
0.364,-2.378,-0.66,108.765,48.767,131.836
-2.34,-1.44,0.627,101.257,38.208,119.141
-3.244,-1.268,0.167,86.609,28.625,80.994
-1.646,0.234,-0.943,62.378,2.563,83.374
4.867,0.794,-1.507,40.039,20.63,139.282
1.651,0.201,-1.263,17.761,31.372,177.307
-8.13,-4.254,5.048,10.498,16.968,173.706
0.383,3.393,1.201,-32.288,2.93,190.918
-1.349,1.699,2.541,-73.12,10.803,174.377
0.88,1.842,2.814,-130.005,15.808,41.626
-1.775,0.105,4.053,-163.452,0.366,-65.247
1.426,1.823,3.771,-194.031,-15.015,-26.978
2.555,2.45,2.967,-218.811,-12.817,30.396
4.584,1.928,-0.086,-234.863,-5.371,-12.451
3.555,-0.703,-0.34,-231.384,-2.075,-53.101
3.321,-1.12,-0.325,-208.801,-1.282,-4.944
1.919,-0.986,-0.833,-177.429,2.747,49.927
0.55,0.459,-0.895,-153.565,4.15,59.875
0.273,0.751,-1.364,-139.16,4.211,43.335
0.148,0.675,-1.287,-124.939,3.54,20.386
-0.589,-0.239,-1.258,-109.131,1.221,30.762
-1.254,-0.373,-0.938,-88.806,-5.981,44.983
-0.617,0.177,-1.407,-75.073,-14.038,13.306
-0.043,0.072,-1.924,-65.369,-16.846,-6.958
-0.239,-0.029,-1.928,-49.927,-18.86,-1.16
-0.024,0.187,-1.689,-36.194,-20.63,-8.057
0.191,-1.134,-1.407,-14.465,-22.522,-40.466
1.139,-2.45,-1.584,14.832,-19.104,-26.978
0.244,-1.096,-2.115,40.039,-15.747,45.776
-0.239,-0.598,-2.436,56.091,-19.531,22.461
-0.321,-0.852,-2.096,67.81,-20.813,-37.72
-1.029,0.043,-1.771,80.811,-16.846,-9.888
-0.646,0.775,-1.995,89.6,-7.69,28.809
0.746,2.062,-2.608,88.013,2.808,-48.218
2.244,3.689,-3.957,80.75,30.64,-85.144
0.536,-0.407,-1.637,84.839,46.57,-25.94
-1.12,-0.589,-0.254,105.652,48.767,32.715
-3.555,1.981,-0.861,124.512,28.503,17.822
-2.125,2.608,0.435,137.146,15.259,-30.823
-0.043,1.871,1.244,161.011,8.118,-42.419
-0.488,2.493,1.081,185.425,5.615,1.465
-0.139,3.015,1.349,200.378,7.813,-1.892
-0.158,2.684,4.532,196.533,20.02,-56.274
-1.177,4.79,4.723,178.894,39.246,-102.112
-0.134,1.182,6.819,157.044,61.401,-130.981
3.412,5.292,2.881,122.498,93.323,-115.112
-0.636,3.397,3.206,90.271,116.577,5.371
-1.617,-1.56,2.804,82.642,113.586,72.571
-1.876,-4.01,3.737,94.727,95.703,66.467
-2.35,-3.938,0.555,107.361,72.998,44.128
-2.134,-5.345,0.766,112.061,60.364,21.545
-0.359,-6.819,-0.321,118.103,48.889,37.659
-0.038,-2.637,0.301,104.37,39.856,112.183
-1.187,-1.971,-3.79,49.744,26.794,133.24
1.469,-2.326,-1.373,17.578,26.55,42.419
-0.412,-2.483,0.115,-2.93,21.729,9.888
-2.57,-3.225,1.704,-4.395,5.188,90.515
-1.522,-1.273,0.794,-11.108,-14.709,16.479
-2.613,-0.943,-0.081,-17.7,-31.86,-50.537
-2.383,-0.584,2.756,-8.606,-51.636,-18.066
-1.483,-0.019,1.689,-1.404,-64.331,-28.076
-0.412,0.45,-1.048,5.127,-68.909,-27.344
0.871,1.474,0.512,4.944,-59.204,31.616
2.139,3.737,0.675,-5.31,-46.814,55.481
4.57,5.924,-3.278,-23.01,-16.724,105.103
3.766,3.082,-3.34,-34.424,4.517,67.505
4.46,0.464,-2.718,-44.556,25.33,-7.446
4.929,1.933,-5.048,-56.091,48.645,6.104
2.905,1.455,-5.273,-59.448,56.946,38.513
0.01,-1.613,-4.0,-30.701,32.41,14.587
-1.555,-3.187,-3.728,22.766,-7.813,41.199
-1.718,-1.632,-2.905,77.332,-57.8,79.651
-0.029,0.565,-2.096,81.848,-80.261,16.663
1.192,2.378,-1.469,59.143,-71.838,-42.297
1.354,1.034,-1.56,23.804,-42.48,-75.867
3.211,0.153,-2.024,-7.813,-8.789,-8.789
4.469,-0.091,-1.479,-37.903,40.161,61.646
1.225,-1.981,-0.847,-48.706,64.636,47.791
-2.9,-3.742,2.78,-28.259,45.471,75.378
-3.369,-1.694,1.536,5.493,0.366,80.627
-3.464,0.507,1.402,18.555,-41.504,15.564
0.479,1.043,1.761,20.63,-65.552,-37.476
4.249,2.019,0.79,4.028,-46.448,-36.926
7.441,6.857,-0.354,-30.884,-8.911,-6.592
1.321,4.847,-2.287,-67.505,17.151,63.904
-2.546,0.316,-2.268,-50.171,-6.104,52.49
-4.206,-0.613,-3.11,-0.305,-63.171,-30.212
-1.445,-0.651,-4.79,36.987,-95.398,-24.902
-0.019,0.732,-4.929,37.659,-90.515,11.719
-1.536,2.68,-5.752,8.728,-68.604,42.969
-0.613,1.871,-5.221,-24.231,-44.739,6.287
-0.306,0.005,-2.914,-41.504,-19.531,-18.616
-0.211,-0.282,-2.149,-30.945,-6.714,37.903
-0.861,-0.44,-0.708,-9.033,-9.277,41.443
-0.474,-0.11,-0.833,14.954,-18.372,18.127
0.431,0.727,-0.77,22.644,-18.494,25.146
1.904,1.239,-1.488,8.118,-5.005,10.01
1.517,1.857,-2.35,-15.747,15.259,28.809
0.593,1.991,-1.89,-31.677,30.884,63.66
-0.043,0.12,-3.541,-26.123,33.386,74.28
-1.187,-1.574,-2.584,15.869,18.433,105.164
-1.345,-0.957,-3.675,75.928,-11.536,128.967
-1.182,1.579,-5.101,95.032,-27.588,116.943
-1.335,2.804,-5.666,76.843,-22.705,100.769
-0.967,4.565,-5.589,33.63,1.831,55.115
-2.096,4.8,-6.192,-16.052,23.743,-44.922
-5.335,0.67,-4.618,-58.289,13.55,-142.212
-7.13,-0.22,-2.952,-62.927,-36.499,-65.186
-9.652,0.287,-2.024,-58.777,-108.398,-74.951
-9.518,1.034,-2.895,-64.087,-207.336,-189.941
-7.417,3.182,-3.354,-80.566,-275.391,-151.55
-7.498,7.163,-3.35,-140.259,-346.741,-98.511
-7.671,10.36,-3.144,-222.595,-418.762,-108.215
-6.216,14.542,-4.622,-309.143,-478.76,-93.811
-9.714,25.682,1.914,-447.205,-567.81,-0.916
-17.461,59.872,26.227,-679.26,-607.056,268.433
56.369,65.547,25.27,-1015.747,-253.418,-743.897
142.995,23.562,12.662,-780.64,1441.406,953.735
151.733,-16.963,-60.015,317.81,1999.939,1082.581
42.382,58.01,-23.189,883.972,1565.063,643.311
19.461,23.95,45.114,372.681,1677.734,-4.639
-1.699,-61.657,35.453,-144.898,897.095,112.122
2.259,-29.022,23.663,-120.422,361.023,499.268
-7.36,-13.753,22.026,-199.707,97.595,106.812
7.163,-26.768,12.963,-108.398,-18.433,-63.66
4.354,-23.289,8.661,11.353,-13.245,-32.288
-1.718,-10.02,6.254,25.146,-13.184,-0.305
-4.063,-3.632,5.962,-63.66,-25.024,-40.1
-2.862,0.005,3.283,-139.16,-28.015,-91.98
-1.838,1.196,2.058,-193.97,-23.376,-62.866
-3.914,5.024,0.536,-233.154,-24.048,-54.138
-4.407,7.254,-0.163,-268.616,-34.546,-81.482
-3.436,8.685,-0.995,-289.551,-57.617,-174.072
-4.776,9.446,-1.34,-298.767,-93.079,-237.732
-5.063,5.981,0.483,-279.053,-145.02,-245.789
-2.082,8.963,1.091,-258.606,-165.405,-193.054
-1.66,14.499,-0.498,-264.282,-162.964,-109.253
1.531,11.815,-0.455,-270.142,-144.775,-102.173
2.957,10.762,-1.397,-255.859,-115.051,-44.983
-0.723,10.896,-0.263,-228.027,-96.008,-93.506
-1.948,10.312,-1.139,-191.65,-112.488,-212.647
-1.072,6.91,-3.158,-136.841,-129.517,-280.701
-2.474,2.359,-3.163,-68.359,-131.043,-270.752
-0.354,-1.493,-2.603,-20.02,-105.591,-146.118
-0.23,4.292,-4.077,-8.972,-49.011,54.626
0.593,6.321,-2.732,-32.104,-20.447,-34.668
1.287,11.604,-7.015,-94.666,16.907,-95.337
-5.694,10.35,-6.058,-158.264,15.869,-43.64
-6.647,0.651,0.187,-163.513,-16.113,-106.201
-3.096,1.12,1.651,-122.498,-56.702,-171.692
0.66,2.086,1.416,-70.19,-66.406,-255.981
-0.359,1.742,1.048,-7.629,-53.406,-195.252
0.191,1.493,0.368,34.302,-26.001,-87.646
1.392,0.254,-0.359,50.781,-1.465,-77.087
3.091,-0.598,-0.55,57.373,32.593,-30.762
2.182,-0.431,0.091,62.5,52.124,83.923
-0.751,0.455,1.373,49.5,63.293,136.353
-0.679,-1.153,1.158,35.522,70.679,88.135
-1.402,-0.479,0.383,25.146,79.651,76.599
1.57,-1.895,0.129,13.0,87.83,68.359
-0.852,-2.713,0.024,10.986,99.487,96.13
-2.306,-2.11,-0.33,6.836,86.182,171.448
-2.077,-0.804,-1.727,-9.094,67.81,174.194
-2.503,-2.239,-1.373,-27.954,42.908,58.899
-3.857,-2.283,0.392,-42.603,1.831,-59.692
-4.067,-1.991,0.766,-42.847,-33.02,-49.5
-2.503,-1.0,1.029,-46.387,-63.354,-26.978
-2.125,0.598,1.526,-65.491,-84.045,-25.574
-1.794,1.986,2.364,-89.111,-92.224,-32.654
-0.9,1.613,3.01,-117.188,-94.36,-77.759
-0.699,0.0,1.699,-131.653,-92.102,-84.839
4.067,1.349,0.66,-148.132,-67.2,17.761
6.431,3.943,-0.617,-180.359,-20.02,55.603
2.536,2.948,1.282,-196.533,5.615,60.12
2.531,-0.708,-0.392,-194.092,22.827,45.837
1.938,-2.474,-0.431,-175.842,25.94,15.015
1.828,-1.751,-0.699,-145.447,23.01,51.819
2.795,-1.68,-0.904,-118.225,23.743,64.941
0.904,0.206,-1.034,-103.027,21.79,99.487
-0.866,2.005,-0.45,-101.379,7.141,94.91
-1.852,1.077,0.191,-105.164,-16.663,3.845
-1.814,-0.268,0.234,-99.426,-43.335,-40.1
0.22,-2.35,-0.345,-81.055,-52.551,-34.058
1.89,-1.708,-1.914,-62.256,-44.067,-18.555
2.11,-1.608,-1.708,-43.091,-28.687,-18.677
1.608,-1.962,-1.775,-23.071,-17.639,-19.775
0.1,-0.488,-2.249,1.587,-9.277,33.02
-0.804,0.541,-2.369,22.583,-7.935,19.836
-0.995,1.139,-1.952,38.147,-7.751,-42.969
-0.823,-0.431,-1.909,58.411,0.0,-120.3
0.632,0.598,-1.416,74.646,19.959,-124.817
1.378,1.593,-1.713,86.365,50.903,-80.994
0.225,1.924,-2.278,95.947,77.209,-26.489
-0.392,-2.885,-0.335,120.85,86.548,-44.922
-0.799,-4.273,-1.56,169.495,89.172,-61.951
-1.474,-0.278,-1.704,210.51,79.102,64.941
-1.799,0.043,-0.861,238.648,43.884,149.963
-1.742,1.148,-1.321,236.145,8.179,72.632
-1.278,3.177,-0.957,219.91,-3.418,14.343
0.349,2.919,-1.603,201.233,11.902,-11.292
0.014,4.45,-1.029,179.688,29.907,-8.667
0.837,3.192,0.167,161.682,56.274,-74.402
6.139,1.675,-1.593,132.629,96.497,-150.635
-3.302,7.982,0.234,93.75,125.366,-97.961
1.402,-3.24,5.895,80.933,131.47,-20.081
-7.403,7.599,3.005,60.791,118.958,57.434
0.866,3.048,1.89,21.606,103.027,104.492
-2.426,0.569,1.876,-1.404,85.144,92.834
-5.091,-2.46,3.737,-3.418,52.673,61.523
-5.154,-3.646,0.574,7.751,9.521,-58.838
-1.943,-3.89,0.479,28.076,-10.376,-152.771
1.44,-5.393,-0.11,63.171,-7.629,-93.933
0.636,-3.292,-1.373,84.106,-1.526,106.384
-0.45,-2.048,-0.488,72.998,-7.874,99.67
-1.058,-0.857,-0.254,49.927,-11.902,15.747
-2.35,-0.828,-0.1,33.691,-12.756,-59.387
1.206,-3.019,-1.861,26.611,-10.681,-112.671
1.469,-4.45,1.182,36.621,-4.944,28.503
-4.886,2.57,0.833,21.606,-20.691,150.452
-2.455,4.618,1.388,-26.978,-45.227,131.287
0.129,3.833,-0.852,-79.224,-58.228,25.085
2.445,4.311,-2.436,-127.625,-64.819,-106.323
2.44,3.091,-0.316,-138.123,-69.397,-85.815
-0.469,-0.488,0.479,-100.952,-72.205,19.104
-0.301,1.613,-2.11,-24.78,-66.467,80.261
-0.22,1.397,-2.862,43.762,-62.134,96.313
2.45,-0.177,-2.838,105.408,-57.678,66.772
2.421,-0.354,-3.225,138.977,-49.011,122.009
0.986,1.89,-5.819,129.211,-50.598,146.179
1.172,3.45,-2.881,92.407,-42.114,85.693
2.421,1.144,-3.101,57.556,-28.503,-8.606
2.57,0.029,-3.608,20.447,-5.31,-49.683
0.45,1.244,-1.637,-13.794,16.174,-47.729
0.34,-1.67,-0.632,-38.635,24.536,-51.697
1.038,-2.302,-1.546,-39.001,28.992,19.47
-0.833,-3.311,-0.488,-11.475,13.184,29.907
-1.617,-2.522,-0.579,39.917,-18.372,63.965
-0.483,-1.005,-0.067,72.327,-43.518,86.548
0.498,1.565,-0.12,61.646,-48.279,67.749
0.569,2.957,-0.541,18.311,-35.461,-22.156
1.881,1.287,-0.282,-22.766,-14.771,-113.77
3.862,3.412,-1.321,-75.073,16.174,-129.822
1.455,0.852,-1.34,-102.783,35.034,-9.46
-2.311,-1.258,-0.158,-78.491,29.785,118.53
-1.838,-0.861,-0.77,-29.297,-2.686,4.211
-1.57,0.45,-1.182,9.766,-31.311,-45.044
0.924,1.503,-2.062,27.039,-39.124,-11.963
1.335,2.493,-2.967,10.071,-27.832,15.198
2.771,4.833,-2.469,-24.536,-8.118,2.38
0.153,2.909,-5.632,-64.087,9.583,-29.358
-1.44,-1.244,-3.244,-55.176,4.822,5.676
-1.278,-1.694,-1.924,0.671,-17.273,81.238
-1.967,-0.23,-2.038,49.866,-44.861,57.007
-0.957,1.885,-2.259,60.974,-55.908,25.024
1.273,3.153,-2.048,36.621,-44.373,-19.226
2.57,3.656,-1.976,-0.732,-18.005,-30.273
3.129,3.761,-3.354,-44.556,16.602,-15.015
0.01,-1.885,-1.225,-38.513,21.484,43.152
-3.091,-2.378,-0.091,10.925,-4.272,148.193
-2.522,0.373,-0.565,52.917,-48.889,65.796
0.479,0.909,-1.134,63.721,-57.373,0.0
1.881,1.503,-1.737,52.673,-29.663,21.057
4.24,3.335,-3.594,17.456,16.846,51.147
2.273,3.675,-3.575,-14.709,54.321,85.815
-1.302,1.297,-3.938,-18.311,68.909,142.151
-3.153,-1.479,-3.383,15.015,57.068,182.983
-4.297,0.273,-3.24,58.228,18.738,130.798
-1.885,1.885,-3.656,74.707,-0.488,52.307
-1.976,2.613,-3.866,68.176,1.648,48.645
-2.957,0.421,-2.694,51.636,9.277,32.715
-3.522,1.407,-3.484,28.748,10.254,14.709
-6.01,0.785,-2.986,-4.883,-12.268,-26.794
-9.068,1.613,-1.565,-49.194,-73.914,-50.659
-10.398,6.039,-2.929,-111.572,-149.17,-99.609
-8.905,5.632,-4.058,-182.007,-247.864,-213.562
-8.417,6.915,-4.177,-217.651,-338.623,-220.703
-7.374,11.13,-5.111,-260.01,-434.57,-224.426
-4.914,13.068,-6.173,-304.382,-516.724,-237.671
-9.226,16.092,0.976,-339.356,-593.506,-167.358
-21.662,47.292,31.415,-487.671,-661.377,192.505
3.278,71.796,44.1,-790.894,-504.7,-240.295
137.167,36.487,20.351,-919.251,917.542,798.828
156.7,6.441,-44.966,3.357,1999.939,888.794
23.553,-2.799,-11.331,1143.616,1940.308,972.595
4.742,36.592,65.499,197.144,1616.882,-272.522
17.59,-61.207,49.579,-111.267,1105.408,54.382
4.603,-36.358,25.888,256.226,500.794,550.659
-5.235,-4.713,33.013,130.798,-1.831,212.463
10.116,-7.819,31.352,22.339,-119.019,-226.563
17.791,-22.653,19.796,86.426,-34.058,-149.292
10.145,-19.37,13.293,132.08,7.08,147.522
1.861,-9.637,13.288,76.111,-4.639,216.309
-4.508,-2.407,12.317,-54.81,-12.329,50.049
-8.699,12.37,5.747,-190.735,-17.517,-122.62
-3.23,10.221,1.105,-341.797,-18.921,-56.213
-4.871,7.12,-0.34,-418.457,-17.517,-58.838
-8.077,9.642,-2.962,-477.417,-63.416,-155.151
-2.603,5.178,-2.345,-476.135,-121.826,-188.66
-4.862,13.03,1.909,-447.632,-132.935,-22.766
-5.235,15.25,2.804,-420.471,-122.803,-84.656
-1.258,11.939,3.058,-369.202,-133.301,-239.197
0.316,10.408,4.498,-292.297,-110.169,-83.252
-0.335,11.092,5.264,-251.465,-72.083,-40.649
-2.948,12.542,3.909,-239.929,-60.669,-69.763
-3.493,13.274,2.297,-241.638,-68.359,-99.548
-3.005,14.174,-0.584,-247.925,-77.82,-88.379
-4.043,12.963,-3.139,-248.596,-85.083,-66.528
-5.01,11.81,-3.857,-230.103,-97.839,-133.85
-5.388,9.489,-4.426,-191.528,-111.511,-190.735
-5.613,6.044,-3.34,-113.77,-115.723,-183.289
-3.78,3.924,-1.11,-37.537,-101.99,-193.665
-0.45,3.996,-1.383,32.715,-61.462,-158.875
-0.187,2.479,-0.904,72.876,-23.987,-105.591
1.282,3.0,0.435,89.355,-0.61,-70.068
3.685,0.641,-1.306,90.515,23.254,-59.937
3.335,-1.139,-0.933,89.294,32.776,-45.593
2.665,0.569,1.144,80.383,26.123,9.888
2.723,-0.565,1.125,63.354,8.545,-21.118
1.842,-0.679,-0.761,47.18,-1.77,-20.325
0.373,-0.445,-1.282,28.503,-14.099,1.404
-0.684,-2.168,-1.148,19.043,-27.954,-24.536
-1.053,-2.881,-0.914,17.7,-45.41,-56.641
-0.804,-1.383,-0.991,14.771,-56.824,-39.124
-1.148,-0.368,-1.053,4.578,-63.843,-69.946
-1.072,-0.469,-0.555,-7.08,-70.923,-87.952
-1.019,0.124,-0.684,-9.949,-76.416,-72.266
-0.44,-0.024,-0.287,-8.179,-79.773,-103.516
1.818,0.459,-0.234,-2.686,-70.251,-145.874
3.063,0.933,-0.354,2.93,-53.345,-87.158
1.364,1.436,0.081,7.751,-41.992,-8.789
0.459,1.354,0.526,9.338,-42.908,-27.161
-0.78,2.077,-0.263,9.46,-51.514,-54.016
-0.809,1.732,0.062,5.249,-63.782,-62.622
-0.689,1.091,-0.407,0.0,-72.51,-50.903
-0.924,-0.067,-1.517,-9.216,-77.393,-42.786
-0.273,-0.273,-2.067,-21.545,-75.867,-60.059
0.952,0.713,-3.254,-40.955,-63.293,-34.18
0.148,0.459,-2.751,-56.03,-48.218,29.846
-1.273,-1.038,-1.593,-59.204,-43.579,-0.793
-1.053,-2.096,-0.656,-49.5,-44.189,-47.791
-0.029,-2.053,0.723,-34.18,-42.114,-27.466
-0.526,-0.737,1.981,-22.705,-39.673,17.334
-1.665,-0.115,3.78,-24.292,-44.495,8.484
-2.024,1.971,4.713,-36.072,-52.734,-8.545
-2.818,2.201,5.426,-58.777,-65.796,-35.156
-4.144,1.282,5.441,-77.515,-81.97,-50.293
-3.924,2.316,2.273,-98.572,-98.755,-40.039
-0.354,2.163,1.048,-119.324,-101.196,-101.929
0.038,0.919,0.732,-121.887,-99.731,-94.055
-0.282,0.713,-0.34,-116.089,-96.741,-45.898
-0.359,-0.373,-3.015,-110.413,-95.154,-93.079
0.144,-1.125,-5.23,-98.45,-91.431,-122.864
1.058,-0.981,-6.029,-87.036,-80.444,-94.421
1.302,-0.651,-6.12,-77.026,-65.43,-43.884
1.431,1.005,-5.503,-67.932,-44.128,-12.329
0.938,2.397,-4.522,-60.852,-26.55,-0.732
-0.23,3.833,-3.737,-50.781,-11.047,15.93
-0.746,4.919,-3.407,-44.8,-1.343,-9.949
-1.105,5.34,-2.23,-41.992,3.052,-50.537
0.407,5.154,1.182,-38.086,10.132,-87.769
1.364,5.474,0.732,-32.288,24.048,-54.749
0.34,3.125,2.273,-12.207,40.71,28.381
-0.479,0.78,2.833,27.588,48.218,51.941
-0.943,-0.388,2.182,68.115,50.781,69.336
-0.675,0.053,1.378,107.056,52.124,81.909
-0.976,0.479,0.139,127.075,52.002,97.961
-1.9,-0.244,-0.699,139.832,46.753,90.332
-1.818,-1.086,-0.22,146.606,41.016,50.781
-0.89,-1.684,1.038,150.269,39.551,28.442
-0.522,-1.924,2.986,151.794,38.269,17.151
-1.101,-2.799,5.005,154.114,33.325,21.667
-1.842,-1.823,6.273,152.405,19.592,39.734
-2.378,-0.239,6.517,137.512,2.625,57.19
-2.488,0.086,6.216,117.188,-10.437,37.415
-2.11,-0.421,5.575,92.407,-19.775,-9.583
-2.235,-0.354,2.651,76.172,-25.085,-17.883
-0.617,0.139,3.139,59.448,-27.832,-7.69
1.45,0.938,3.397,42.358,-21.667,-48.218
1.45,1.407,2.483,32.41,-12.695,-26.794
0.431,-0.89,1.842,32.532,-9.216,-6.348
0.507,-2.488,0.512,36.072,-10.803,-72.021
1.354,-3.316,-0.689,42.725,-6.958,-82.336
2.283,-3.455,-1.349,47.607,2.625,-48.767
2.393,-3.259,-1.431,51.086,11.597,-26.917
1.373,-3.024,-1.129,56.763,17.761,-7.751
0.335,-2.067,-1.455,59.021,19.043,-2.563
-0.153,-0.603,-1.651,54.382,20.813,0.183
-0.282,0.187,-1.254,48.218,24.536,-4.944
-0.167,1.388,-0.493,42.725,29.907,-17.334
-0.646,4.331,-0.526,34.18,38.513,-3.662
-1.282,4.278,-0.024,24.902,43.64,-4.456
-0.134,2.613,0.78,16.602,51.209,-60.913
0.249,3.173,0.928,10.254,63.782,-20.081
-0.991,2.613,0.981,8.667,70.862,40.955
-1.589,0.479,1.292,4.333,65.063,11.475
-0.359,-1.665,1.072,-1.77,50.232,-35.584
-1.23,-2.479,0.498,-8.362,32.532,-35.706
-0.33,-3.383,1.177,-7.874,29.48,-78.735
1.536,-1.861,1.134,2.563,27.588,-63.66
1.139,-2.919,1.029,18.677,28.87,13.733
-0.297,-6.986,1.316,44.128,16.785,109.985
1.11,0.234,1.416,57.312,12.634,172.73
0.914,4.838,-2.096,40.222,1.709,205.139
-1.866,3.192,-0.024,27.1,-0.732,200.745
-0.842,3.685,0.718,20.386,-4.639,175.415
4.249,1.278,1.134,17.334,5.066,138.245
0.703,0.445,3.039,19.409,13.672,77.209
-0.646,2.79,2.153,14.648,15.503,9.521
1.751,2.795,1.713,6.653,23.865,-42.114
1.479,1.177,1.632,-1.709,34.851,-79.407
0.56,-0.048,1.33,-7.69,41.382,-82.642
-0.751,-1.469,1.354,-11.78,44.312,-64.026
-2.101,-2.105,1.584,-12.878,41.077,-34.424
-3.019,-2.421,2.23,-12.268,34.668,-12.39
-2.747,-2.795,3.173,-9.155,29.602,-7.996
-3.158,-1.531,3.086,-6.531,25.94,-11.475
-1.617,0.115,2.967,-8.911,27.344,-12.817
-1.321,-0.818,3.814,-11.047,32.715,-32.837
0.359,-0.364,2.306,-15.991,38.025,-58.96
3.302,-0.488,1.68,-25.757,53.284,-76.782
-1.11,0.613,0.067,-36.987,54.321,-91.125
-2.828,1.23,-0.282,-48.218,40.222,-104.309
0.024,2.316,0.766,-55.359,30.518,-105.774
0.694,1.402,1.11,-55.847,27.649,-93.323
0.249,-0.636,1.311,-52.673,27.71,-57.495
-0.66,-2.134,1.029,-48.34,26.489,-31.616
-1.321,-2.531,-0.024,-46.021,20.386,-19.348
-2.483,-2.503,-0.397,-44.861,9.216,-19.287
-2.751,-1.483,-0.196,-44.128,-1.221,-23.376
-2.33,-0.431,0.632,-44.861,-9.094,-18.25
-3.464,0.301,1.077,-43.884,-15.137,-13.245
-4.579,2.235,0.813,-43.152,-23.01,-7.69
-1.517,-0.124,3.192,-31.982,-18.494,-3.906
-1.761,-1.144,3.536,-17.822,-8.423,14.709
-4.206,-0.096,0.651,-6.348,-7.996,33.997
-2.316,-0.641,1.747,2.808,-10.071,22.583
-1.713,-0.043,1.809,10.193,-12.939,-9.277
-0.938,1.101,1.761,12.512,-14.954,-26.367
0.507,2.369,1.919,9.46,-12.695,-27.588
1.201,2.479,2.168,3.357,-9.277,-23.315
2.747,3.053,1.613,-4.333,-3.479,-24.963
2.737,2.048,0.976,-11.841,3.845,-18.921
2.034,1.79,-0.019,-16.907,8.789,-0.671
1.732,1.014,-0.416,-18.616,12.024,12.085
0.833,-0.062,-0.397,-18.311,14.16,15.503
0.641,-0.278,-0.66,-15.93,14.038,9.338
1.727,-0.301,-1.129,-11.047,18.005,5.066
1.593,-0.397,-0.761,-3.052,24.475,9.216
0.55,0.225,-0.574,2.136,27.283,11.414
-0.22,0.947,-0.66,3.052,25.269,4.456
-0.675,1.062,-0.335,0.61,21.118,-2.563
-1.455,1.014,-0.292,-2.808,14.771,-2.197
-1.589,0.703,-0.234,-6.409,7.507,2.869
-1.603,0.139,-0.153,-7.996,2.38,11.78
-1.416,-0.23,-0.029,-7.019,-2.136,19.165
-0.943,-0.187,-0.01,-5.737,-4.211,18.433
-0.971,-0.172,-0.234,-3.418,-6.409,13.367
-0.522,-0.254,-0.115,-0.977,-5.92,9.827
-0.316,-0.316,0.067,1.221,-4.272,7.996
-0.565,-0.517,0.177,3.479,-3.174,4.456
-0.55,-0.412,0.234,4.639,-2.38,2.625
-0.445,-0.096,0.129,4.7,-1.648,3.235
-0.215,-0.167,0.306,5.005,-1.648,-0.977
0.234,0.062,0.435,5.493,-0.854,-4.7
0.177,0.153,0.67,4.15,0.122,-3.479
-0.464,0.081,0.359,1.282,-0.732,-0.183
-0.493,0.201,0.019,-3.479,-4.028,2.136
-0.048,0.0,0.062,-6.409,-5.31,5.005
0.163,-0.483,0.105,-6.287,-4.089,6.226
0.445,-0.718,0.278,-3.479,-0.549,5.554
0.746,-0.45,0.373,-0.244,3.601,3.357
0.708,-0.215,0.474,2.808,8.24,0.977
0.139,0.024,0.292,3.479,9.949,0.732
-0.44,0.024,0.34,2.136,9.216,2.319
-0.641,0.364,0.244,-1.587,6.165,4.578
-0.967,0.273,0.153,-5.188,2.563,5.005
-0.569,0.134,0.153,-8.545,-0.671,2.869
-0.44,-0.153,0.134,-9.277,-2.136,-1.77
0.0,-0.297,0.158,-7.629,-1.221,-4.395
0.263,-0.182,-0.01,-4.7,1.099,-4.089
0.316,-0.33,0.005,-1.526,3.662,-3.357
0.0,-0.455,0.053,1.648,5.31,-0.61
-0.345,-0.44,0.01,3.784,4.883,2.441
-0.335,-0.263,0.091,4.456,3.479,1.526
-0.081,-0.019,0.201,3.967,1.953,-1.831
0.024,0.225,0.211,2.563,0.854,-3.662
-0.062,0.22,0.191,0.366,-0.732,-1.343
-0.115,-0.01,0.234,-0.854,-1.77,3.967
0.024,0.014,0.225,-1.77,-2.197,6.531
-0.053,-0.115,0.187,-3.052,-1.892,4.456
0.124,-0.124,0.22,-3.174,-0.793,1.831
0.321,-0.067,0.191,-2.747,1.526,-0.305
0.211,-0.206,0.215,-1.953,3.967,0.183
-0.153,-0.22,0.191,-1.587,4.517,1.221
-0.33,0.019,0.196,-1.831,3.601,0.183
-0.191,-0.057,0.163,-2.441,2.625,-0.977
-0.11,-0.163,0.11,-2.441,1.892,0.916
-0.129,-0.12,0.005,-2.625,1.282,2.563
0.053,-0.115,0.024,-2.93,1.404,2.563
0.244,-0.019,0.086,-2.502,2.197,2.197
0.22,0.014,0.043,-1.77,2.625,0.793
0.1,-0.029,0.129,-0.671,2.991,0.671
-0.297,-0.244,0.11,0.0,2.075,1.526
-0.273,-0.239,0.201,0.0,0.977,0.122
-0.254,0.005,0.053,-0.366,0.0,-2.869
0.0,-0.029,0.11,-0.793,-0.305,-4.822
0.139,-0.12,0.172,-0.427,0.61,-2.563
0.163,-0.038,0.062,-0.305,1.587,1.221
-0.057,-0.029,0.043,-0.305,1.343,1.282
-0.144,0.057,0.072,-1.038,0.305,-0.671
-0.134,-0.072,0.124,-1.343,-0.549,-0.61
-0.263,-0.388,0.153,-0.793,-1.404,-0.244
-0.182,-0.349,0.129,0.061,-1.648,1.282
0.024,-0.273,0.062,0.854,-1.038,1.709
0.072,-0.115,0.172,1.16,-0.427,-1.282
0.115,0.029,0.206,0.549,0.122,-4.028
-0.019,-0.005,0.11,-0.244,0.305,-4.7
0.014,-0.062,0.163,-0.916,0.977,-1.892
0.11,-0.086,0.23,-1.404,1.831,-0.61
-0.086,-0.038,0.158,-2.014,1.831,-2.38
-0.124,0.062,0.043,-2.869,0.916,-4.211
0.053,-0.019,0.115,-3.052,0.427,-5.249
-0.01,-0.033,0.024,-2.625,-0.488,-4.272
-0.1,-0.134,-0.024,-1.892,-1.282,-1.892
-0.043,-0.124,-0.1,-0.854,-2.38,0.427
0.0,-0.388,-0.014,0.61,-2.502,2.319
0.01,-0.44,0.057,2.808,-1.892,3.54
0.1,-0.258,0.105,3.784,-0.793,3.113
0.057,-0.062,0.048,3.479,0.183,2.014
-0.077,-0.105,0.196,2.502,1.038,1.038
-0.053,0.163,0.234,0.854,1.526,-0.061
-0.019,0.292,0.177,-1.831,1.831,-1.282
-0.187,-0.005,0.158,-3.235,2.136,-1.343
-0.077,-0.086,0.177,-3.784,2.747,-1.77
-0.067,-0.23,0.153,-3.662,3.662,-3.662
-0.048,-0.163,0.01,-3.174,3.906,-4.822
-0.033,0.0,0.0,0.0,0.0,0.0
-0.033,0.0,0.0,0.0,0.0,0.0
-0.033,0.0,0.0,0.0,0.0,0.0
-0.033,0.0,0.0,0.0,0.0,0.0
-0.033,0.0,0.0,0.0,0.0,0.0
-0.033,0.0,0.0,0.0,0.0,0.0
-0.033,0.0,0.0,0.0,0.0,0.0
-0.033,0.0,0.0,0.0,0.0,0.0
-0.033,0.0,0.0,0.0,0.0,0.0
-0.033,0.0,0.0,0.0,0.0,0.0
-0.033,0.0,0.0,0.0,0.0,0.0
-0.033,0.0,0.0,0.0,0.0,0.0
-0.033,0.0,0.0,0.0,0.0,0.0
-0.033,0.0,0.0,0.0,0.0,0.0
-0.033,0.0,0.0,0.0,0.0,0.0
-0.033,0.0,0.0,0.0,0.0,0.0
-0.033,0.0,0.0,0.0,0.0,0.0
-0.033,0.0,0.0,0.0,0.0,0.0
-0.033,0.0,0.0,0.0,0.0,0.0
-0.033,0.0,0.0,0.0,0.0,0.0
-0.033,0.0,0.0,0.0,0.0,0.0
-0.033,0.0,0.0,0.0,0.0,0.0
-0.033,0.0,0.0,0.0,0.0,0.0
-0.033,0.0,0.0,0.0,0.0,0.0
-0.033,0.0,0.0,0.0,0.0,0.0
-0.033,0.0,0.0,0.0,0.0,0.0
-0.033,0.0,0.0,0.0,0.0,0.0
-0.033,0.0,0.0,0.0,0.0,0.0
-0.033,0.0,0.0,0.0,0.0,0.0
-0.033,0.0,0.0,0.0,0.0,0.0
-0.033,0.0,0.0,0.0,0.0,0.0
-0.033,0.0,0.0,0.0,0.0,0.0
-0.033,0.0,0.0,0.0,0.0,0.0
-0.033,0.0,0.0,0.0,0.0,0.0
-0.033,0.0,0.0,0.0,0.0,0.0
-0.033,0.0,0.0,0.0,0.0,0.0
-0.053,0.292,-0.057,-0.183,0.183,-0.427
0.014,-0.167,0.062,0.183,5.554,-5.798
0.541,4.163,-0.837,-3.784,-1.343,6.104
1.024,-4.742,1.029,-3.845,-4.272,18.372
-4.828,-6.685,-1.038,13.916,-5.066,38.147
-9.877,-8.183,-3.225,26.733,-33.569,-58.838
-3.732,-7.618,1.096,55.481,-28.564,5.066
9.556,-1.062,2.804,37.476,-22.278,25.33
3.608,-1.651,1.747,2.075,15.198,-22.888
3.723,-2.78,1.943,-47.058,49.927,-65.491
2.388,-2.608,2.364,-73.73,64.697,-75.317
0.345,-3.316,2.144,-78.43,58.289,-51.697
4.034,-6.02,2.747,-66.834,55.664,-42.725
3.895,-3.991,4.0,-67.383,46.143,-134.399
-0.613,0.081,4.56,-78.369,9.46,-210.144
-0.005,-1.129,4.087,-58.472,-34.302,-140.076
-4.809,0.957,4.005,-29.663,-75.012,-65.063
1.0,0.569,6.824,-6.042,-118.897,-38.208
-4.642,5.608,-2.483,-5.432,-152.832,-159.485
-5.843,4.838,-0.919,8.423,-201.111,-136.658
-1.699,3.134,-3.139,21.545,-203.43,-5.554
-6.537,0.014,-2.584,20.874,-220.52,-25.33
-0.641,-0.498,-4.369,19.653,-231.751,-101.44
-5.077,0.086,-5.254,27.405,-243.53,-99.792
-3.976,-0.431,-5.78,38.147,-248.779,47.18
-1.613,-0.383,-4.498,18.25,-235.901,118.774
-0.239,-0.895,-3.637,-6.226,-218.201,72.571
-0.852,-1.861,-2.417,-22.034,-194.031,106.628
0.991,-2.015,-3.196,-38.696,-169.556,158.997
1.426,-2.617,-4.302,-59.875,-151.611,96.558
0.924,-3.106,-4.455,-64.026,-148.377,58.838
2.273,-3.139,-4.914,-60.974,-150.33,57.434
2.469,-3.024,-4.584,-59.448,-164.124,20.691
2.919,-3.134,-3.517,-52.917,-179.321,33.752
4.512,-3.704,-2.483,-43.274,-190.064,116.943
6.781,-3.182,-1.488,-44.25,-193.726,132.324
8.958,-3.665,-0.694,-47.852,-186.279,131.226
12.24,-5.407,-1.57,-48.157,-165.344,125.244
12.886,-4.096,-1.871,-50.171,-141.113,100.891
10.178,-0.421,-1.378,-61.584,-126.221,-11.292
6.211,2.33,-1.23,-70.435,-127.93,-90.637
4.182,2.914,-0.311,-66.223,-134.583,-103.333
2.579,2.909,0.057,-55.115,-135.681,-104.065
4.278,3.618,1.823,-37.659,-128.601,-53.04
3.795,2.139,1.699,-22.278,-105.652,-28.748
3.905,1.345,2.723,-6.653,-79.529,-35.522
3.67,1.258,3.78,2.441,-55.42,-51.147
2.641,0.368,3.957,7.568,-25.208,-85.754
-1.101,-3.192,2.507,16.296,-5.676,-115.173
-2.149,-2.417,3.005,23.376,15.869,-40.283
-1.976,-2.206,4.972,13.855,34.424,0.916
-2.991,-1.704,4.541,-11.108,41.626,-113.648
-3.909,-1.766,2.507,-32.227,47.18,-117.798
-3.78,-1.416,1.235,-44.861,59.143,-67.078
-2.684,-0.445,-0.885,-61.707,66.162,-77.637
-1.641,0.699,-1.503,-74.707,75.378,-65.247
-1.416,0.708,-2.594,-82.153,78.979,-94.543
-1.287,0.703,-3.335,-84.9,76.355,-129.944
-1.55,0.703,-2.866,-85.144,68.97,-140.93
-0.589,0.043,-2.0,-79.956,60.12,-135.62
-1.503,-1.172,-0.584,-64.88,52.002,-113.037
-0.368,-1.359,-0.388,-45.105,48.096,-38.757
0.517,-2.048,1.579,-26.184,43.457,1.648
2.799,-2.972,2.952,-13.367,42.603,-9.46
2.278,-1.316,2.306,-10.254,44.189,-50.232
-1.153,-0.943,1.091,-9.644,28.259,-41.199
-0.498,-0.675,2.043,-7.446,11.841,1.709
1.019,-0.11,2.024,-10.498,1.221,1.953
1.971,1.192,1.751,-15.564,-2.502,-16.052
0.694,1.053,-0.402,-13.916,-1.282,-7.141
-0.924,0.349,-1.613,-5.554,-2.991,-6.958
-2.804,-0.038,-3.23,0.732,-9.46,-7.263
-3.723,0.89,-2.857,-3.906,-22.4,-8.484
-3.297,0.45,-2.393,-10.193,-29.419,18.921
-0.933,0.665,-1.278,-21.179,-28.625,71.35
0.584,0.579,-1.024,-41.931,-18.127,79.956
1.263,-0.278,0.191,-62.317,-8.057,49.927
2.206,-1.206,0.727,-82.825,6.165,11.78
2.158,-2.866,2.043,-86.182,17.151,-20.508
1.665,-1.325,2.962,-84.412,30.64,-44.495
0.44,-1.325,1.986,-82.275,37.354,-55.42
-1.029,-2.283,1.833,-71.594,33.936,-74.097
0.206,-0.986,2.096,-54.688,35.95,-55.115
0.335,-0.148,0.933,-39.124,41.26,-31.372
-0.804,0.445,-1.081,-25.085,43.701,-52.49
-2.541,1.474,-2.216,-22.461,35.156,-72.266
-4.369,1.546,-2.895,-27.344,21.545,-54.016
-3.814,0.301,-4.311,-36.011,5.066,3.418
-3.555,0.201,-3.34,-51.27,-3.845,57.617
-0.708,0.053,-1.986,-71.045,-4.395,70.007
3.015,-1.44,-0.574,-78.308,9.705,16.785
3.675,-3.263,-0.249,-69.214,20.874,-65.002
1.861,-4.431,1.852,-42.053,25.024,-72.388
2.019,-2.876,2.302,-14.954,25.635,-13.855
0.546,-0.134,0.957,1.892,18.188,2.93
-2.373,-0.273,1.144,10.193,-6.592,-20.935
-0.22,0.823,1.847,15.869,-19.959,45.593
2.321,0.943,2.464,14.099,-24.048,85.144
3.24,1.244,1.373,7.08,-20.447,40.222
1.474,1.235,-0.402,1.038,-16.052,-21.912
-0.761,1.081,-1.464,0.977,-16.052,-32.776
-2.421,0.933,-2.029,1.77,-19.897,-11.658
-2.9,0.301,-1.464,0.427,-26.794,4.028
-3.144,0.005,-0.928,-3.479,-33.386,-2.686
-2.45,-0.828,0.287,-8.057,-36.316,18.86
-0.56,-1.172,1.479,-11.719,-28.687,81.909
-0.373,-1.311,2.192,-19.653,-19.104,88.257
-0.632,-0.727,3.33,-32.227,-9.766,40.405
1.852,0.507,2.991,-41.992,9.583,59.875
3.455,-0.12,0.746,-47.668,41.321,58.472
1.464,-0.861,0.79,-50.232,58.289,-33.142
0.732,-0.45,1.163,-50.476,65.369,-48.279
0.359,-0.187,0.914,-49.866,72.998,-12.634
-0.239,0.493,-0.048,-53.223,75.867,-24.658
-1.555,1.139,-1.153,-60.181,71.716,-66.345
-2.483,1.354,-1.818,-63.965,63.599,-74.707
-2.56,1.498,-2.431,-61.768,57.068,-49.194
-2.225,0.976,-2.474,-53.467,49.683,-27.1
-1.311,0.636,-2.273,-43.396,44.373,-26.917
-0.345,0.268,-1.708,-30.09,39.185,-27.588
0.904,0.024,-1.072,-15.686,37.231,-9.644
0.842,-1.263,-0.091,-4.883,34.973,-21.179
2.302,-1.603,1.503,8.24,33.325,-12.695
5.436,-0.287,1.201,16.052,43.274,45.898
2.235,-1.148,1.292,14.771,38.94,-19.836
1.316,-1.215,1.632,14.832,25.024,-47.241
0.526,-0.804,1.727,16.418,14.099,1.343
0.139,0.407,1.067,10.315,1.465,24.048
-0.699,0.723,0.134,1.648,-9.46,1.282
-1.421,0.914,-0.957,-2.747,-19.531,-3.845
-1.876,1.101,-1.397,-3.113,-26.611,5.859
-2.12,0.89,-1.627,-2.747,-31.738,1.038
-2.105,0.885,-1.105,-1.77,-34.668,-3.479
-1.737,0.33,-0.392,-0.244,-33.447,2.869
-0.732,-0.11,0.546,1.16,-27.527,31.372
0.33,-0.794,1.483,0.0,-18.127,40.1
0.919,-1.211,2.177,-3.479,-9.338,27.222
1.22,-0.66,3.211,-10.01,2.563,32.227
1.646,0.904,1.857,-21.667,14.648,25.757
0.301,-0.493,1.168,-33.447,23.499,-36.865
-0.297,-2.417,1.708,-30.396,28.015,-44.189
1.034,-2.091,1.684,-21.912,36.438,20.508
0.359,-0.402,0.297,-23.01,43.518,18.066
-1.11,0.632,-1.182,-30.762,39.551,-44.983
-2.785,1.426,-2.507,-35.156,30.823,-59.448
-3.206,1.546,-3.302,-31.128,22.583,-24.963
-2.493,1.546,-3.292,-24.78,18.127,0.0
-1.431,1.464,-2.321,-18.494,14.038,3.235
-0.378,1.282,-1.215,-15.198,12.451,-4.883
0.378,0.861,-0.498,-12.573,11.963,-15.015
0.737,-0.053,0.464,-7.751,13.184,-3.296
0.914,-0.847,1.359,-2.197,15.076,2.319
1.483,-0.244,1.407,0.549,19.714,3.601
1.555,-0.268,0.924,1.404,25.269,4.211
0.775,-1.904,1.823,5.615,24.048,-12.878
1.78,-2.163,3.196,12.695,23.315,26.367
1.507,-0.66,3.704,7.874,20.813,23.56
-0.656,0.153,2.522,-6.775,10.62,-42.969
-1.684,0.479,1.22,-13.245,3.113,-35.767
-2.187,0.976,0.019,-15.991,-2.441,11.536
-2.46,0.871,-0.44,-19.775,-7.996,9.338
-2.751,0.746,-0.407,-22.644,-11.047,-3.052
-2.938,1.388,-0.167,-28.381,-10.437,3.235
-3.034,1.45,-0.124,-35.706,-7.324,6.47
-2.512,1.11,0.23,-44.006,-0.183,2.991
-1.459,0.474,-0.234,-48.462,11.597,-0.183
-1.852,-0.885,0.292,-49.072,21.851,-13.062
-0.933,0.081,-0.526,-49.927,36.621,6.287
-0.895,-0.78,-0.531,-49.316,50.781,4.639
-1.79,-0.665,-0.187,-49.805,59.082,-45.959
-1.33,0.263,-0.359,-50.415,66.895,-40.771
-1.426,-1.297,0.479,-44.678,72.083,-45.715
-1.421,-1.823,0.029,-33.264,72.266,-50.659
-0.847,-2.239,0.407,-21.545,69.885,-15.991
-1.957,-2.488,0.589,-12.878,55.664,-28.87
-2.163,-2.067,0.703,-8.362,35.889,-22.034
-1.718,-2.149,0.469,-4.272,20.569,8.667
-0.847,-1.924,0.086,-2.441,5.981,17.761
-0.656,-1.498,0.12,-4.456,-3.479,24.841
0.857,-0.742,0.364,-10.01,-6.348,58.838
1.928,-0.732,0.517,-19.104,-2.625,35.095
1.421,-0.589,0.177,-25.757,0.671,-17.151
0.297,-0.412,0.239,-26.245,3.662,-16.357
0.115,-0.613,0.215,-21.545,6.042,13.123
0.129,-0.416,0.081,-17.395,4.395,3.845
-0.278,-0.01,0.273,-14.771,-0.61,-0.793
0.115,-0.153,0.431,-10.864,-3.601,17.334
0.345,-0.617,0.163,-5.31,-7.202,11.047
0.876,-0.187,0.445,-1.221,-7.996,13.306
0.952,-0.077,0.613,0.488,-7.385,11.963
0.823,-0.014,0.536,2.136,-6.714,6.653
0.818,-0.225,0.55,3.723,-5.676,2.258
0.55,0.029,0.297,4.089,-5.432,0.488
0.895,0.349,0.148,1.892,-3.967,9.521
0.675,-0.019,0.273,-2.747,-4.15,-8.057
0.679,-0.048,0.225,-6.348,-5.127,-10.376
0.995,-0.345,0.402,-7.935,-4.944,8.423
1.694,-0.536,0.402,-9.949,-5.493,5.615
1.55,-0.751,0.746,-12.878,-8.423,-20.142
1.79,-0.632,0.818,-14.526,-10.864,-15.808
1.699,-0.627,1.086,-15.381,-13.794,-13.123
1.689,-0.134,1.292,-16.296,-16.357,-32.166
1.593,0.488,1.89,-14.954,-15.93,-33.325
1.785,0.431,2.345,-11.353,-12.634,-47.424
1.168,0.048,2.33,-3.967,-7.08,-84.167
1.182,0.895,2.488,1.77,1.282,-93.079
2.761,0.876,3.292,4.089,12.39,-78.247
2.278,-1.153,3.067,10.376,21.851,-97.595
1.488,-1.507,2.287,18.494,23.56,-98.084
0.239,-1.158,2.857,21.545,17.456,-83.069
-0.282,-1.531,1.737,21.301,6.409,-57.251
-0.005,-1.139,1.584,19.531,-1.465,-31.189
0.359,-0.694,1.172,14.404,-8.545,-39.246
-0.292,-1.349,-0.167,13.489,-13.367,-52.307
-1.962,-1.34,-1.163,15.564,-21.057,-51.147
-2.555,-1.488,-1.68,19.714,-28.564,-44.25
-2.541,-1.416,-1.861,23.804,-32.959,-33.203
-2.603,-0.904,-1.258,26.184,-39.185,-40.344
-1.866,-1.158,-1.239,26.855,-40.222,-43.213
-1.895,-1.727,-1.536,32.532,-41.199,-43.335
-1.531,-1.885,-1.617,37.17,-41.809,-25.513
-4.307,-1.861,-0.057,38.94,-49.988,1.404
-6.111,-2.043,-0.431,47.852,-67.749,107.483
-5.335,-2.895,-0.177,55.42,-73.12,191.956
-6.876,-1.957,0.857,59.143,-78.308,227.112
-7.977,-3.129,0.383,78.979,-85.999,322.144
-1.641,-1.627,2.574,82.581,-83.13,410.156
0.675,-0.914,4.354,85.938,-76.416,481.995
4.024,0.636,3.311,78.979,-78.003,413.696
-0.053,-0.971,1.627,80.261,-85.693,350.83
-1.919,0.622,5.603,89.355,-108.887,326.172
9.293,-6.761,2.096,105.408,-98.633,284.18
2.129,-6.977,-1.637,145.386,-99.182,162.659
3.862,-2.316,-1.215,158.325,-85.999,14.343
3.283,-0.459,-2.929,139.343,-32.104,-112.244
1.852,0.0,-2.747,97.473,28.687,-65.674
0.526,-0.794,-3.799,53.711,62.134,-87.402
-1.048,-2.11,-1.598,18.25,81.177,-70.74
-0.651,-2.56,-4.077,5.066,83.862,-38.696
0.502,-2.527,-2.737,-2.136,76.05,-58.472
0.498,-1.096,-2.053,-11.78,65.552,-109.07
1.125,-0.412,-1.11,-5.981,63.721,-49.316
1.373,-1.383,0.258,7.751,52.124,-30.701
1.278,-1.526,2.962,28.809,45.349,-30.151
-3.235,-6.876,-2.747,64.392,30.457,34.119
-5.187,-6.556,-3.134,106.628,-1.77,69.397
0.335,1.048,-1.378,105.469,-8.057,45.227
-0.531,2.12,-1.024,45.776,7.874,-63.293
-1.148,1.536,-0.828,-17.517,31.799,-59.448
-2.536,0.077,-1.345,-65.857,46.265,-16.418
-1.794,-0.196,-1.904,-78.247,52.917,44.25
-1.354,-0.603,-0.699,-70.557,53.101,42.114
-0.981,-0.632,-0.775,-49.377,42.847,1.892
-1.282,-0.651,-0.182,-23.987,29.663,-9.277
-1.048,-0.541,-1.081,5.066,18.433,-5.249
0.34,0.416,-2.598,16.296,16.174,-33.386
1.445,2.488,0.024,-3.601,25.146,-33.325
2.0,3.493,-0.981,-64.087,46.204,-56.335
0.837,1.924,-0.526,-96.436,57.068,-51.514
-1.617,0.206,-0.1,-87.708,55.237,5.798
-0.995,-0.766,-0.407,-39.185,47.302,93.567
-1.775,-1.766,0.876,6.348,29.663,64.087
-3.158,-4.364,-0.804,63.416,-5.981,-29.541
0.435,-0.373,0.646,101.379,-19.104,-95.276
1.727,2.885,-0.139,82.397,0.549,-78.857
0.55,3.35,0.292,8.972,27.405,-23.499
-0.799,0.603,0.852,-45.349,44.983,61.218
0.158,-2.646,-0.167,-60.913,53.894,113.403
0.967,-2.675,-0.512,-45.654,52.612,74.036
-0.852,-0.833,-0.474,-19.592,30.884,-8.972
-1.459,-2.823,-0.019,22.156,5.615,-24.109
3.177,-4.431,-1.828,67.261,2.991,-1.099
3.976,3.082,0.053,65.674,20.569,-22.888
3.594,4.029,-1.455,6.592,48.889,-56.58
2.278,2.943,-0.684,-72.571,73.242,-10.803
-1.57,-0.134,-0.474,-102.173,62.195,-20.63
-1.517,-2.172,-0.842,-73.792,38.33,14.587
-1.498,-3.149,-0.823,-15.869,4.944,8.606
-0.488,-1.148,-0.301,20.142,-12.817,-13.428
1.598,1.904,0.665,17.761,-8.301,13.733
1.086,1.349,0.34,-9.705,5.066,-8.24
0.139,-0.33,0.01,-20.02,10.62,-26.489
-1.024,-0.775,-0.014,-11.108,6.897,-14.099
-1.043,-0.416,-0.033,3.418,-1.892,-8.667
-0.981,0.077,0.12,17.273,-12.024,-9.399
-0.258,0.278,-0.005,17.761,-11.902,7.568
0.694,0.651,-0.081,2.441,-2.441,11.902
0.976,-0.12,0.062,-22.583,14.709,9.094
0.397,-1.029,-0.024,-35.156,24.597,-15.137
-0.608,-1.23,-0.234,-30.518,27.527,-19.165
-1.723,-0.88,-0.11,-5.798,21.912,47.791
-1.325,-1.967,0.211,18.738,14.465,118.591
-0.584,1.172,0.412,20.508,10.986,133.85
0.019,1.33,0.866,-0.854,18.372,55.847
3.268,-0.038,0.048,-25.391,45.776,41.138
2.718,0.675,0.914,-35.95,66.589,41.077
2.125,-1.148,-0.172,-21.301,67.627,35.95
1.067,-2.589,-0.455,25.513,47.974,41.138
-1.0,-4.646,-1.871,72.51,16.785,12.634
1.077,-0.641,-1.067,96.069,-11.963,-78.186
3.527,2.254,0.234,70.435,1.892,3.235
2.617,2.565,0.761,21.667,18.25,50.72
-0.335,0.01,0.086,-17.944,14.526,-20.63
-2.072,-0.66,-0.397,-13.0,-6.226,6.348
-1.727,-2.153,-1.273,17.639,-37.354,50.781
-1.335,-1.235,-1.168,37.781,-63.171,20.081
0.531,1.522,-0.885,27.649,-61.951,33.508
0.77,1.809,-0.689,-11.536,-42.053,87.158
0.349,0.67,-1.258,-46.753,-31.372,69.824
0.541,-0.526,-1.598,-61.829,-37.598,57.739
0.368,-1.627,-2.096,-50.72,-61.218,50.537
-0.254,-1.512,-2.445,-31.616,-91.187,32.227
1.861,-1.038,-2.838,-5.432,-111.694,6.836
4.814,1.359,-2.058,10.498,-89.844,-16.541
10.326,-0.483,-2.177,37.476,1.648,-16.846
11.125,-3.115,-1.962,80.139,130.188,-184.937
9.384,-4.015,-2.661,121.643,246.582,-280.396
5.977,-7.168,-4.914,184.753,373.779,-251.343
5.484,-7.819,-3.972,235.046,458.801,-228.088
7.082,-10.532,-1.297,284.912,545.837,-229.797
9.451,-19.404,15.877,321.899,619.507,-240.601
31.171,-37.951,60.929,404.663,597.412,-295.715
-110.422,-42.861,50.986,780.64,-472.473,325.378
-144.627,-46.799,-11.451,779.724,-1929.749,348.267
-54.201,-22.198,51.177,-354.187,-1868.53,1088.013
-22.194,-44.813,34.52,-126.099,-1690.002,244.629
6.871,46.277,30.515,125.305,-1312.805,292.908
13.231,26.94,17.739,-3.845,-733.826,288.94
7.326,34.501,9.408,-59.265,-317.444,508.179
22.471,7.522,17.624,-133.545,78.064,484.924
10.781,4.886,16.327,-145.752,184.692,-211.243
-1.637,7.474,11.068,-91.553,159.363,99.06
4.139,4.12,13.044,-18.921,86.914,44.739
5.364,-2.531,10.298,60.669,34.241,-60.12
8.14,-3.656,6.474,174.194,14.832,-13.245
7.905,-4.216,3.694,260.132,13.855,-34.302
4.67,-4.182,0.833,310.547,21.301,-114.014
3.058,-6.436,-3.795,357.483,40.161,-136.047
3.948,-3.723,-4.34,372.925,65.918,-153.626
3.838,-12.221,-4.656,381.348,98.877,-162.842
3.584,-15.566,-5.053,360.23,148.132,-381.104
1.948,-15.82,-5.757,317.2,209.9,-444.885
-1.871,-14.944,-3.627,291.992,235.046,-225.952
-1.483,-19.121,-5.498,314.392,199.768,-59.937
-1.345,-11.709,-3.914,298.706,131.043,-209.656
-0.613,-7.245,-1.651,228.882,117.31,-341.858
0.287,-4.469,-0.526,182.922,117.981,-174.133
3.579,-4.168,0.402,147.461,109.558,2.869
4.977,-5.857,0.857,125.122,105.347,17.7
4.316,-7.819,0.526,111.206,102.661,-67.2
4.259,-7.427,-0.957,106.995,104.248,-101.44
4.378,-6.144,-1.397,105.652,106.384,-70.007
3.948,-6.364,-1.469,100.403,102.478,-70.923
3.775,-6.541,-1.689,93.323,95.642,-104.919
3.828,-6.192,-2.278,80.078,88.135,-148.682
2.661,-5.206,-3.187,58.594,75.928,-165.833
1.058,-2.373,-2.876,28.442,58.044,-171.509
-0.694,-0.933,-2.996,-11.353,28.625,-137.756
-0.191,0.196,-2.034,-41.931,6.836,-68.42
-1.038,-0.172,-0.196,-72.449,-15.076,-25.94
-3.321,0.857,1.268,-100.403,-43.091,-65.247
-3.766,-0.416,1.651,-107.3,-61.035,-5.615
-1.775,-0.048,0.129,-106.018,-64.575,64.575
-2.206,0.656,-0.938,-106.628,-65.369,5.005
-1.665,2.933,-0.981,-105.408,-67.139,-61.829
-3.814,5.173,-0.01,-101.929,-76.538,-84.961
-1.249,4.766,-0.306,-90.088,-78.979,-39.368
-1.172,2.306,-1.512,-59.021,-69.519,74.524
3.455,-0.483,2.929,-10.925,-50.415,203.674
3.804,-4.096,-0.249,29.175,-26.855,224.731
-0.1,-1.871,1.144,53.65,-33.264,-17.639
-0.546,-1.847,1.809,71.106,-35.461,-133.911
2.756,1.239,2.866,74.28,-11.963,-15.747
0.914,1.34,1.196,58.96,1.404,17.456
-0.689,1.072,-0.077,35.217,-0.488,-89.905
-1.684,0.483,0.861,29.724,-5.493,-89.05
-0.445,-0.368,1.0,38.513,-5.371,14.893
1.895,0.0,0.546,41.321,-0.732,56.03
2.105,0.991,0.512,30.396,3.723,-25.879
1.287,1.392,0.479,20.447,11.108,-53.223
0.775,1.555,0.081,20.264,17.517,-8.362
0.651,0.967,0.086,24.414,19.165,-11.23
1.493,1.761,-0.464,30.518,24.475,-35.278
1.771,2.11,-0.522,34.79,32.776,-35.339
2.115,0.598,0.321,44.373,43.945,-7.69
0.794,-1.134,0.665,57.434,44.312,-37.598
1.077,-1.158,0.608,68.909,44.8,-44.373
0.435,-1.062,0.66,80.627,46.631,-27.161
0.732,0.187,-0.053,86.853,48.34,-26.245
0.354,-0.517,-0.11,92.59,52.063,-23.315
-0.057,-0.435,0.029,96.375,51.758,-39.551
-0.665,-0.694,0.589,99.182,51.575,-43.213
-1.766,-1.699,-0.397,110.291,45.41,-14.832
-1.713,-0.416,0.072,112.854,36.316,-20.203
-2.656,0.847,1.11,103.821,23.743,-37.476
-2.321,0.962,1.369,93.079,14.954,1.648
-2.996,0.589,0.579,83.74,5.066,13.062
-2.216,0.479,0.641,68.604,-3.174,20.63
-1.919,0.325,0.613,52.734,-5.554,26.245
-2.287,0.349,0.56,34.729,-8.606,6.897
-1.053,0.641,0.407,25.513,-4.517,40.955
-0.278,0.498,-0.364,18.616,0.244,34.607
-1.168,0.55,-0.512,10.376,2.808,-10.742
-0.727,0.445,-0.88,5.798,5.432,1.77
0.876,0.746,-1.613,-4.272,14.709,24.536
0.153,1.684,-1.531,-30.151,16.907,-38.147
0.311,0.813,-1.857,-46.997,17.883,-32.959
0.067,-0.048,-1.775,-56.885,15.93,-6.531
-0.311,0.584,-2.244,-69.275,7.202,-43.823
-0.732,0.88,-2.062,-83.801,-8.728,-64.636
-1.928,0.986,-0.014,-92.59,-30.396,-36.438
-2.038,0.684,-0.828,-104.065,-45.593,-18.311
-0.139,-0.507,-1.416,-109.68,-49.805,55.542
-0.292,-0.498,-0.541,-116.455,-48.035,63.232
-0.435,-0.991,0.1,-123.596,-46.387,37.17
1.239,-0.646,0.507,-129.211,-37.72,30.579
1.775,-0.598,1.756,-134.094,-27.588,26.489
1.168,-2.125,2.938,-128.479,-22.949,24.658
1.268,-3.814,2.699,-110.718,-22.4,33.813
0.546,-2.546,2.507,-89.661,-29.602,4.211
0.23,-0.44,2.206,-76.782,-40.71,-24.902
0.756,0.234,1.632,-64.941,-44.373,11.78
2.617,1.45,1.675,-56.396,-35.584,71.838
3.048,0.057,-0.105,-47.18,-26.611,89.6
0.9,1.325,0.541,-40.161,-24.719,50.659
2.249,-0.273,-0.694,-23.132,-17.456,63.171
3.278,-0.847,-0.435,-6.042,-6.226,44.922
0.732,1.058,-1.048,1.16,-4.517,-39.978
0.124,2.158,-1.383,-0.549,-3.54,-63.843
1.211,3.929,0.172,-24.963,7.019,-23.987
1.416,1.962,0.048,-49.866,23.804,14.282
1.22,-0.1,0.651,-57.007,36.499,18.25
0.646,-0.737,0.593,-53.223,44.25,-12.268
-0.201,-1.062,0.459,-41.443,44.434,-35.767
-1.737,-1.646,0.866,-22.583,36.987,-63.049
-1.359,-1.507,0.852,-3.357,33.386,-30.884
-0.268,-1.292,-0.431,6.775,37.72,12.329
-0.364,0.254,-0.857,-3.235,40.588,-27.527
-0.77,0.244,-0.742,-16.846,43.579,-38.147
-0.995,-0.579,-2.259,-16.052,44.067,3.296
-0.732,-0.895,-2.507,-2.258,37.964,11.169
-0.991,-0.536,-2.656,11.841,25.635,-18.921
-1.129,-0.373,-2.661,29.114,8.423,-25.391
0.258,0.699,-1.857,28.931,4.089,-4.578
1.335,1.302,-1.459,2.136,14.465,15.137
0.986,1.11,-2.144,-30.701,27.71,20.935
0.115,0.359,-1.924,-42.542,34.546,38.94
-0.22,-1.718,-1.981,-31.86,32.104,50.049
-2.129,-1.646,-2.038,-13.062,18.738,17.09
-1.608,-1.713,-0.474,17.151,-1.953,-19.959
-0.512,-2.134,-0.809,50.293,-13.123,-26.489
0.254,0.234,-0.723,60.547,-8.24,-23.56
0.541,2.024,0.502,29.846,7.874,-14.648
0.182,1.498,0.12,-14.648,28.32,17.639
0.148,-0.56,-0.483,-53.955,47.058,45.166
-0.316,-2.412,-0.962,-58.899,47.18,-1.892
-2.225,-3.46,0.191,-36.194,31.311,-34.729
0.412,-4.345,-1.306,15.869,11.108,20.203
-0.646,-0.737,-1.517,35.278,-1.587,31.982
1.742,3.115,-0.383,-5.92,8.606,68.481
1.503,1.794,-0.613,-69.031,42.053,137.085
0.263,-2.359,-1.914,-94.482,55.42,86.731
0.459,-4.378,-1.56,-74.829,44.983,49.316
-0.88,-3.857,-1.254,-36.072,18.555,44.067
-1.11,-4.134,-2.771,15.808,-20.081,50.72
2.684,0.78,-2.249,18.86,-25.513,62.5
5.34,2.335,-0.555,-20.325,8.85,132.568
4.426,-0.526,-1.096,-69.702,45.593,38.574
1.139,-1.302,-1.172,-73.364,44.922,0.061
1.139,-2.684,-1.306,-31.067,18.555,54.016
-0.431,-4.828,-1.546,29.053,-27.954,30.273
1.675,-1.048,-1.536,50.842,-51.453,-15.747
3.876,3.771,0.005,16.174,-39.368,89.05
2.603,2.086,-0.938,-41.138,-20.142,98.206
0.737,-1.086,-2.723,-74.341,-23.01,35.461
-0.756,-1.196,-3.077,-64.514,-55.847,42.847
-1.077,-1.713,-4.034,-44.006,-94.727,53.711
1.359,-1.33,-3.905,-20.325,-127.075,32.837
6.106,1.024,-2.742,-10.071,-106.018,54.199
13.504,-1.943,-2.201,7.019,-10.925,44.617
11.283,-4.785,-3.388,45.532,93.079,-228.699
5.45,-2.933,-1.22,92.285,173.889,-273.804
6.101,-5.393,-2.503,163.086,266.846,-175.537
7.087,-8.498,-4.321,228.149,339.356,-195.984
2.747,-9.168,-5.106,271.606,414.978,-275.513
4.168,-9.106,-2.134,288.086,494.202,-280.884
11.346,-16.748,9.8,318.543,576.66,-175.354
31.85,-53.11,38.415,517.09,635.559,75.012
-84.152,-36.87,54.666,659.851,50.049,-783.691
-137.281,-47.119,9.264,823.364,-1488.281,616.943
-95.942,-22.16,-19.217,-202.759,-1712.463,1371.338
-33.592,-43.401,10.001,-444.092,-1621.338,398.926
24.596,-6.34,31.285,62.5,-1323.73,-23.132
12.561,51.369,14.451,140.32,-780.518,817.932
23.72,13.571,15.671,9.033,-198.853,608.765
24.945,20.461,19.672,-53.894,141.785,18.555
-1.809,31.74,20.217,-222.412,158.569,-59.265
-4.278,20.911,13.327,-209.045,27.954,109.741
4.632,9.039,13.398,-80.933,-21.301,97.778
2.412,5.015,10.747,52.795,-54.321,10.925
3.842,4.914,7.077,139.099,-73.059,-20.752
3.814,4.656,4.388,159.973,-79.102,-11.047
3.402,-1.024,3.354,173.34,-85.327,-30.945
4.235,-6.556,0.78,211.121,-80.078,-15.381
3.876,-8.417,-1.034,246.094,-64.88,-102.295
3.393,-7.886,-2.732,266.235,-26.611,-194.641
1.971,-5.216,-1.225,258.85,12.817,-252.93
2.455,-7.479,-2.086,218.994,64.209,-279.663
-0.01,-9.121,0.627,177.918,91.309,-288.635
2.0,-12.327,0.115,145.447,112.549,-268.005
-1.077,-14.437,0.239,155.762,114.624,-148.621
-2.306,-13.839,-3.058,178.467,92.041,-54.504
-4.398,-9.446,-3.484,173.645,43.152,-120.117
-0.756,-9.68,-4.067,172.18,20.63,-99.67
1.325,-6.594,-3.493,162.476,20.63,-144.714
1.244,-4.948,-2.742,146.118,38.208,-131.714
1.79,-5.484,-1.79,140.137,52.368,-50.781
2.871,-6.589,-2.689,134.705,64.697,-88.684
3.364,-8.666,-2.962,140.747,79.712,-97.595
1.622,-7.872,-2.823,135.315,93.567,-156.067
0.861,-6.321,-3.235,108.276,108.521,-144.898
-0.077,-5.503,-3.579,70.313,110.291,-126.587
-0.105,-4.13,-4.814,9.46,98.999,-129.822
-0.148,-2.785,-4.694,-34.424,90.271,-78.796
-1.177,-1.919,-3.986,-69.031,76.599,-39.001
-0.967,-1.22,-2.297,-75.867,62.073,-2.197
-1.89,-0.684,-0.469,-62.988,47.791,24.658
-2.359,-1.823,-1.684,-31.738,26.001,-5.249
-5.144,0.502,-0.435,-4.089,-1.282,-41.504
-1.79,-3.67,-2.933,41.809,-23.804,-35.828
0.88,-1.263,-0.56,69.58,-17.639,-3.052
1.182,4.685,-0.541,48.645,0.854,-33.447
-0.239,3.067,-0.79,6.653,17.212,-73.486
-0.723,1.718,-0.847,-13.489,23.804,-18.433
-0.177,0.072,-0.388,-14.404,23.865,15.93
0.12,-2.015,1.0,2.563,17.029,-26.855
0.866,-2.555,1.436,24.597,12.695,-76.66
1.019,-2.216,1.517,49.011,14.343,-73.059
1.244,-0.89,1.225,53.406,19.897,-54.077
0.01,1.828,0.105,30.273,22.583,-91.248
-2.067,1.804,1.211,7.019,15.442,-81.238
-1.273,-0.33,1.55,6.653,9.216,-0.854
0.78,-0.675,1.12,14.648,7.324,42.358
0.794,0.627,0.866,14.709,6.592,-2.258
0.057,1.55,0.139,15.503,5.249,-39.429
0.129,1.541,-0.751,23.132,8.728,-3.174
0.44,1.56,-1.23,29.175,13.55,30.762
0.56,1.723,-0.842,29.419,19.409,12.878
1.192,1.455,0.057,26.184,29.48,3.235
1.598,1.043,0.364,24.109,43.945,14.16
0.962,0.431,0.833,28.137,51.697,16.235
1.014,-1.971,1.325,45.593,54.626,42.053
1.144,-2.909,0.287,72.693,52.795,27.527
-0.086,-0.871,0.201,86.792,47.852,-18.799
0.345,1.833,0.167,91.187,47.668,-8.362
0.608,-0.397,-0.081,101.318,49.5,37.048
0.613,-0.483,-0.139,110.23,46.143,13.184
-0.555,0.493,0.115,110.169,43.518,-36.377
-1.68,0.368,-0.1,111.084,39.246,-22.217
-1.517,0.813,-0.426,109.192,33.752,11.963
-2.144,1.881,-0.182,94.299,23.743,-11.536
-3.149,2.833,0.407,79.59,13.977,5.005
-2.436,1.053,0.756,75.562,4.211,78.857
-2.311,0.148,0.684,75.684,-5.737,61.462
-1.565,0.483,1.144,74.646,-10.559,33.447
-1.507,1.794,0.67,64.575,-6.165,42.236
-0.957,1.311,-0.364,52.368,-1.709,36.987
-0.713,0.067,-1.268,42.114,-0.61,11.108
0.163,1.024,-1.225,30.518,1.465,-0.122
-0.316,0.847,-1.747,10.925,-1.343,-20.996
-1.115,0.67,-2.455,-8.362,-10.803,-26.123
-1.029,1.034,-1.373,-26.611,-17.7,-11.536
0.713,-0.053,-1.254,-45.776,-18.372,-1.16
0.713,0.158,-0.947,-60.364,-16.785,-19.287
-0.45,0.876,-0.598,-76.538,-23.621,-56.58
-0.694,0.345,-0.622,-79.285,-33.386,-21.667
-0.469,0.349,-0.967,-77.576,-41.382,14.16
-0.957,0.148,0.077,-78.552,-57.129,-25.33
-1.235,0.081,-0.464,-79.529,-72.083,-74.463
-0.392,-1.962,-0.766,-64.087,-79.102,-63.049
0.225,0.292,0.981,-57.983,-75.439,-17.273
-0.971,0.866,-0.78,-73.73,-72.266,-57.678
-2.278,0.679,-1.751,-101.257,-76.782,-69.824
-0.512,1.431,-0.517,-128.479,-71.167,26.978
0.761,-0.368,-0.368,-160.706,-51.331,88.501
0.656,-2.278,1.665,-175.476,-37.354,74.951
0.737,-2.728,2.316,-172.73,-35.034,30.151
1.215,-1.316,1.23,-160.889,-42.603,-28.687
1.383,0.139,0.167,-144.775,-52.673,-50.476
-0.01,-0.837,2.086,-112.915,-59.998,-6.165
3.072,-4.685,3.665,-71.899,-64.392,-5.493
5.254,-1.507,0.828,-36.804,-50.476,0.061
3.177,-0.756,0.383,10.742,-29.663,-5.554
1.507,1.632,0.368,29.785,-20.752,-13.245
0.727,3.048,-0.689,23.987,-11.902,-6.47
-0.608,4.249,-0.89,-7.874,-7.507,7.385
-0.813,4.149,-1.249,-40.1,-3.296,30.029
-0.364,2.55,-0.708,-62.988,5.798,55.176
-0.541,1.024,0.603,-64.27,10.437,50.049
0.167,0.163,1.058,-51.209,13.123,19.836
0.0,0.603,1.058,-33.081,15.564,23.743
1.57,-0.373,1.412,-14.343,21.667,46.936
-1.574,0.273,0.833,1.099,20.508,69.031
0.206,-1.282,1.704,17.517,18.188,83.801
1.603,-3.732,0.282,43.457,17.944,51.27
-1.445,-3.115,0.22,62.744,15.32,-1.404
-0.345,-2.177,-0.34,61.707,18.677,15.686
0.546,-0.876,-1.483,31.921,33.569,29.236
-1.464,-0.732,-1.991,-1.404,38.94,-26.428
-1.665,-0.541,-2.622,-20.569,41.077,-0.305
-1.991,-1.029,-2.378,-19.226,34.363,9.46
-1.297,-0.991,-3.23,-8.301,25.33,19.165
-0.986,-0.311,-1.976,3.662,17.09,33.508
0.77,1.125,-2.11,-3.418,15.32,-13.855
1.44,1.163,-1.708,-17.029,26.855,-9.705
0.278,1.359,-1.258,-28.503,36.072,27.954
-0.057,0.445,-0.694,-27.039,41.26,67.932
-0.809,-1.144,-0.273,-13.489,37.476,48.218
-1.053,-1.727,-0.273,4.395,28.564,7.08
-1.479,-0.416,-0.239,17.761,18.738,-30.09
0.325,0.412,-0.297,14.954,23.56,16.846
0.306,0.699,-0.694,1.16,33.203,30.334
1.192,-0.148,-0.952,-13.428,44.495,16.907
1.067,-0.359,-1.12,-13.794,52.246,8.484
-0.038,-1.617,-1.273,4.028,46.204,-1.648
-0.646,-1.397,-2.445,30.64,30.212,-16.357
-1.072,-1.818,-3.326,56.519,9.338,-47.363
1.66,0.383,-1.632,39.917,16.907,28.381
3.665,-0.842,-0.866,-7.446,49.255,116.516
3.374,-2.101,-1.139,-59.753,78.735,23.071
1.302,-2.378,-1.105,-63.416,78.796,-22.4
0.378,-2.22,-1.168,-31.25,55.908,-27.71
1.101,-2.488,-2.852,24.963,22.339,-7.629
1.153,-1.192,-2.029,58.777,3.357,12.207
4.914,1.991,-0.675,43.762,16.663,71.289
4.503,1.258,0.258,-2.686,42.053,34.607
2.053,-1.799,-0.627,-32.288,56.458,-11.597
0.526,-3.646,-1.33,-13.245,43.152,-1.16
-1.211,-3.512,-1.756,18.738,12.878,-25.635
-2.517,-2.149,-2.115,49.316,-27.222,-35.034
0.321,1.436,-0.718,37.537,-35.217,46.204
1.402,1.603,-0.928,-2.808,-22.522,90.759
1.684,-0.656,-0.746,-41.931,-5.249,60.547
1.68,-1.603,-1.139,-46.631,-6.409,32.104
0.574,-1.68,-1.976,-28.992,-31.616,22.888
-0.546,-2.842,-3.01,-0.732,-66.895,43.03
-0.703,-1.885,-3.852,22.278,-110.046,32.532
3.546,0.292,-3.244,12.817,-115.906,27.405
5.709,1.278,-3.441,-12.878,-84.778,27.222
6.436,0.77,-3.096,-37.598,-15.808,-1.404
9.135,-1.861,-1.512,-22.644,81.299,-42.786
6.977,-3.455,-1.895,19.531,155.884,-153.442
3.665,-3.259,-2.795,87.952,224.182,-194.702
4.364,-3.771,-2.833,142.639,277.222,-183.899
4.45,-2.929,-2.082,167.908,336.304,-230.957
1.637,-4.594,-2.163,178.772,380.615,-208.008
1.938,-7.096,0.416,197.998,419.373,-180.298
13.504,-10.953,16.384,245.483,501.77,-61.34
25.845,-35.855,45.052,384.277,570.801,104.736
-73.677,-32.137,64.37,583.557,14.343,-714.478
-132.09,-43.822,30.022,824.463,-1489.441,565.369
-115.021,-4.78,14.686,141.541,-1997.314,1552.185
-53.723,-73.151,25.873,-392.639,-1857.605,570.923
0.225,-2.498,33.214,-200.317,-1570.129,110.779
24.055,41.377,23.189,-23.743,-722.595,613.892
11.939,38.497,16.461,-86.487,-76.172,360.596
9.312,14.265,24.132,-195.252,283.875,55.908
-11.949,9.422,22.251,-295.654,223.999,-135.803
-8.513,11.795,19.093,-178.711,83.13,98.755
-0.364,4.163,15.116,61.951,-43.701,62.073
5.264,1.89,9.752,283.569,-93.994,-68.359
3.158,0.546,2.9,364.38,-77.881,-90.881
2.555,2.086,1.244,335.999,-49.072,-91.064
3.058,2.608,1.096,255.005,-25.635,-53.65
4.24,0.167,-0.019,169.312,2.869,18.005
6.206,-2.359,-0.12,118.286,26.367,-17.151
2.34,-7.273,1.077,114.807,35.217,-102.966
-1.565,-9.829,2.57,128.357,7.935,-119.141
2.12,-15.37,-3.493,202.881,0.977,-104.126
-4.972,-22.165,-9.628,290.772,-10.803,-135.376
-1.857,-17.164,-8.441,368.164,-3.479,-150.635
0.311,-7.135,-4.555,346.802,44.678,-321.045
-0.546,-10.24,-6.479,253.54,125.061,-521.362
1.613,-5.249,-5.331,150.574,171.631,-363.525
1.885,-4.091,-2.775,48.035,167.358,-161.804
2.9,-4.426,-1.187,-4.761,150.269,-129.944
1.914,-6.508,-1.708,-10.193,138.55,-50.781
2.952,-5.742,-1.991,17.639,120.606,-44.739
1.086,-6.608,-2.46,54.443,108.032,-64.331
3.441,-5.402,-3.914,87.036,98.572,-66.589
5.235,-3.862,-3.651,105.347,108.582,-64.941
1.948,-2.239,-3.254,91.37,111.633,-149.902
0.871,-2.426,-2.656,53.284,105.469,-229.492
1.392,-2.11,-2.909,22.644,99.609,-191.528
-0.813,-1.838,-3.45,-5.737,81.482,-144.348
-2.785,-1.086,-3.019,-22.4,54.443,-127.502
-3.364,-1.416,-2.579,-28.687,23.926,-81.421
-3.082,-0.455,-1.809,-32.654,-2.197,-33.997
-1.924,0.072,-0.919,-39.49,-14.709,8.484
-0.703,0.258,-0.105,-45.532,-17.212,45.959
0.139,-0.316,-0.574,-45.044,-12.329,46.387
0.273,-0.703,0.584,-36.987,-5.005,26.672
-0.134,-1.995,2.895,-18.494,-1.648,10.193
0.627,-2.723,3.144,-3.906,-1.343,-34.18
1.785,-1.962,2.177,3.479,0.488,-129.7
-0.402,0.383,-0.368,-3.662,-1.282,-223.755
0.378,2.192,0.627,-28.198,-3.906,-214.172
-2.393,1.378,1.574,-42.48,-17.151,-64.575
-1.852,-0.412,1.723,-33.875,-27.649,19.714
2.263,0.813,1.675,-13.184,-35.156,51.758
7.972,1.215,4.029,1.709,-33.875,-14.404
-2.412,-2.67,-3.33,26.306,-26.733,-1.465
-5.8,3.067,0.479,55.481,-37.659,72.083
2.919,5.178,-0.077,52.002,-34.607,183.777
2.689,3.804,0.029,46.143,-2.502,278.32
3.508,0.072,-0.842,53.65,23.01,217.468
-0.163,0.517,0.469,64.453,33.203,53.833
0.043,0.947,1.483,77.148,43.823,-31.86
0.943,0.55,1.89,85.327,57.678,-37.72
1.995,1.129,2.278,92.468,78.308,7.446
1.713,0.368,2.244,98.267,93.201,23.438
0.641,0.335,1.192,104.431,98.877,3.906
-0.373,-1.129,0.072,117.798,100.281,-7.813
-0.388,-4.273,0.158,139.954,97.229,9.644
-0.785,-2.512,-0.019,160.034,86.975,-5.615
-1.455,0.187,-0.502,157.166,76.599,-38.635
-2.015,0.66,-0.354,147.217,64.148,-4.578
-1.78,0.053,0.029,134.583,48.096,44.189
-0.077,0.459,-0.34,118.958,40.039,72.571
-0.919,0.455,0.56,96.863,31.311,40.222
-0.761,-0.024,0.254,86.121,26.55,44.983
-1.153,-0.148,-0.842,80.444,22.583,69.275
-1.431,0.402,-1.058,71.228,11.414,50.842
-0.837,1.392,-0.895,59.387,5.676,11.169
-0.589,1.206,-1.79,47.913,4.333,5.981
-0.981,0.426,-2.56,41.138,1.892,13.0
-0.196,1.053,-2.019,27.954,0.244,12.268
0.435,1.474,-2.321,2.808,2.014,-11.963
-0.761,0.617,-2.464,-16.663,-1.404,-37.72
0.081,-0.349,-2.661,-33.325,-7.935,-25.635
1.235,-0.067,-1.66,-48.218,-9.094,-16.907
1.067,0.507,-0.766,-70.129,-12.085,-43.03
0.746,-1.57,-0.766,-79.834,-20.874,-55.542
0.062,-0.914,-1.144,-81.665,-31.006,-53.711
-1.373,-0.493,-1.139,-88.013,-48.279,-46.143
-0.756,0.22,-1.603,-96.313,-61.157,-4.639
-0.746,0.474,1.067,-111.145,-69.275,40.405
-0.483,0.407,0.297,-138.794,-74.219,-13.977
-0.244,0.177,0.517,-156.616,-75.073,-11.841
0.234,-0.837,-0.12,-167.969,-70.313,10.376
0.45,-1.517,0.364,-168.579,-66.834,17.822
0.225,-0.885,1.45,-164.551,-66.101,6.409
1.235,-2.268,2.397,-147.034,-72.754,-4.639
-0.675,-1.335,2.866,-123.962,-78.491,-16.052
2.555,-3.058,3.287,-80.2,-85.571,10.193
3.441,-1.273,2.393,-37.354,-76.05,20.874
-0.268,-1.215,1.952,-2.93,-76.721,-4.15
2.268,2.751,2.866,8.911,-66.772,55.359
2.22,4.283,1.933,-17.334,-55.359,53.101
2.622,4.168,0.641,-69.031,-40.161,22.888
2.005,3.474,0.608,-106.812,-27.71,15.32
0.335,2.799,0.024,-127.136,-19.47,20.569
0.986,1.589,-0.426,-111.389,-11.719,65.369
-0.498,-0.096,-0.952,-84.412,-6.653,129.334
0.512,0.656,-0.761,-57.007,-2.563,122.559
1.44,-1.263,-1.115,-41.565,-5.371,62.622
0.89,0.196,0.201,-18.86,-7.202,25.146
-2.866,-1.058,-0.804,5.371,-21.667,-3.967
-0.947,-4.488,0.134,33.875,-34.18,-38.452
1.459,0.813,0.1,52.917,-28.015,-63.904
0.699,2.048,0.656,41.504,-0.549,21.667
2.297,1.086,-0.383,12.146,45.532,123.352
2.694,-2.311,-1.297,-19.714,87.463,29.236
0.148,-3.139,-1.962,-30.029,109.131,-46.875
-3.498,-1.168,-2.708,-29.541,102.234,-101.685
-4.871,0.368,-2.718,-16.357,79.651,-86.609
-6.101,-0.823,-1.694,14.832,44.495,-53.162
-3.46,-2.546,-0.842,76.721,17.273,60.852
